sub_num,trial,block,task,is_practice,category,image,texture,duration,mask_dur,jitter,stim_time,time_of_resp,trial_response,mask_time,fix_time,jit_onset,trial_end,trial_accuracy,RT
141,1,0,typicality,1,bathroom,bathroom_practice2.tif,222,1.5,0,1.48333333333333,6739.28359575,6744.195954208,1,NaN,6744.216876292,6744.237077583,6745.7139475,NaN,NaN
141,2,0,typicality,1,bathroom,bathroom_practice4.tif,224,1.5,0,0.75,6745.784112833,6749.675600833,7,NaN,6749.68546025,6749.704366792,6750.4477225,NaN,NaN
141,3,0,typicality,1,bathroom,bathroom_practice1.tif,221,1.5,0,1.93333333333333,6750.454849458,6754.411855667,6,NaN,6754.419006792,6754.437844083,6756.364683792,NaN,NaN
141,4,0,typicality,1,bathroom,bathroom_practice5.tif,225,1.5,0,0.983333333333333,6756.400204042,6760.739534208,6,NaN,6760.747382792,6760.766164917,6761.742857958,NaN,NaN
141,5,0,typicality,1,bathroom,bathroom_practice3.tif,223,1.5,0,0.883333333333333,6761.75137925,6766.603624417,4,NaN,6766.613939833,6766.633423125,6767.510188208,NaN,NaN
141,1,1,typicality,0,bathroom,sun_aapitsgbtktqubfy.tif,122,1.5,0,0.866666666666667,6784.360421375,6788.011827292,7,NaN,6788.01794525,6788.036586625,6788.896612625,NaN,NaN
141,2,1,typicality,0,bathroom,sun_aleqenyvunhactkl.tif,142,1.5,0,1.03333333333333,6788.902367875,6792.5874165,3,NaN,6792.593265917,6792.612120333,6793.638826125,NaN,NaN
141,3,1,typicality,0,bathroom,sun_ajlawzvmubibwbpy.tif,140,1.5,0,0.866666666666667,6793.64854925,6797.203449875,6,NaN,6797.209250292,6797.227745375,6798.087751042,NaN,NaN
141,4,1,typicality,0,bathroom,sun_alkosphxlxwjwgjd.tif,144,1.5,0,1.61666666666667,6798.09265025,6801.594776875,6,NaN,6801.601230792,6801.619667667,6803.229705167,NaN,NaN
141,5,1,typicality,0,bathroom,sun_anhioqovhscjqqwb.tif,148,1.5,0,0.883333333333333,6803.24893125,6806.526733833,5,NaN,6806.555607667,6806.578893792,6807.455566708,NaN,NaN
141,6,1,typicality,0,bathroom,sun_alotolagknyrgtsk.tif,145,1.5,0,0.933333333333333,6807.46104925,6811.315492917,2,NaN,6811.321011708,6811.3393705,6812.266043958,NaN,NaN
141,7,1,typicality,0,bathroom,sun_aghyqhbptboemmoq.tif,133,1.5,0,1.5,6812.2783135,6815.819584417,7,NaN,6815.82517,6815.843479708,6817.336856833,NaN,NaN
141,8,1,typicality,0,bathroom,sun_asfwthctfqerjvxr.tif,159,1.5,0,1.36666666666667,6817.35529225,6820.922763917,4,NaN,6820.928707167,6820.946998333,6822.307048208,NaN,NaN
141,9,1,typicality,0,bathroom,sun_agyqfjcfkdcydepw.tif,135,1.5,0,0.85,6822.32441525,6825.299988292,1,NaN,6825.305812667,6825.324058792,6826.16739675,NaN,NaN
141,10,1,typicality,0,bathroom,sun_apeeialkgkuxddgh.tif,152,1.5,0,1.81666666666667,6826.172620375,6829.522970917,6,NaN,6829.5285945,6829.546916542,6831.356951875,NaN,NaN
141,11,1,typicality,0,bathroom,sun_acegryoqftbzowsg.tif,127,1.5,0,1.28333333333333,6831.375989458,6840.4512865,5,NaN,6840.457038292,6840.475396208,6841.752096167,NaN,NaN
141,12,1,typicality,0,bathroom,sun_anryaplzeujmzfkd.tif,149,1.5,0,1.23333333333333,6841.769342667,6846.619660708,3,NaN,6846.625792792,6846.644135792,6847.870842708,NaN,NaN
141,13,1,typicality,0,bathroom,sun_amzlamotzwfkwjco.tif,147,1.5,0,0.883333333333333,6847.887125833,6852.099240792,4,NaN,6852.105571042,6852.124051083,6853.000724542,NaN,NaN
141,14,1,typicality,0,bathroom,sun_afcoljnjfoxjtgja.tif,130,1.5,0,0.866666666666667,6853.011731042,6857.8988785,6,NaN,6857.9048435,6857.923214625,6858.783221125,NaN,NaN
141,15,1,typicality,0,bathroom,sun_aclfzgynxzxlbepz.tif,129,1.5,0,1.36666666666667,6858.788312667,6861.812950708,6,NaN,6861.837668375,6861.861184583,6863.22123675,NaN,NaN
141,16,1,typicality,0,bathroom,sun_acduarbnmmoglmiv.tif,126,1.5,0,1.05,6863.239532417,6866.531534833,7,NaN,6866.537057167,6866.555485,6867.598864458,NaN,NaN
141,17,1,typicality,0,bathroom,sun_auzqhkafidnkrwmo.tif,164,1.5,0,1.21666666666667,6867.608815667,6871.002637333,3,NaN,6871.008542708,6871.026840583,6872.236873208,NaN,NaN
141,18,1,typicality,0,bathroom,sun_aofnryafpsjimzsb.tif,150,1.5,0,0.816666666666667,6872.256023708,6877.307033542,5,NaN,6877.313228542,6877.33150925,6878.141514375,NaN,NaN
141,19,1,typicality,0,bathroom,sun_apmqjbnwghzuhhzh.tif,156,1.5,0,1,6878.146313,6882.043582792,4,NaN,6882.050198125,6882.068449792,6883.061789167,NaN,NaN
141,20,1,typicality,0,bathroom,sun_abjtwfukuwddzted.tif,125,1.5,0,1.21666666666667,6883.067211042,6886.235192917,4,NaN,6886.242131833,6886.26038975,6887.470411542,NaN,NaN
141,21,1,typicality,0,bathroom,sun_awnqiikzaispgmwo.tif,166,1.5,0,1.46666666666667,6887.4871685,6890.907357333,7,NaN,6890.912857667,6890.931099,6892.391134083,NaN,NaN
141,22,1,typicality,0,bathroom,sun_aljolscmmzydegqp.tif,143,1.5,0,1.4,6892.405881833,6895.491235375,1,NaN,6895.496746333,6895.514956208,6896.908321208,NaN,NaN
141,23,1,typicality,0,bathroom,sun_abapwbhyhkfixyex.tif,124,1.5,0,0.783333333333333,6896.92618425,6900.146905167,7,NaN,6900.152419208,6900.170740875,6900.947413583,NaN,NaN
141,24,1,typicality,0,bathroom,labelme_sfxiulhjbhlyiyt.tif,121,1.5,0,1.21666666666667,6900.952026083,6903.934794917,7,NaN,6903.950877042,6903.971827667,6905.181870917,NaN,NaN
141,25,1,typicality,0,bathroom,sun_axldvoqbuvuggfmq.tif,167,1.5,0,1.35,6905.197904958,6908.34679325,7,NaN,6908.352605667,6908.371004042,6909.714380167,NaN,NaN
141,1,2,typicality,0,bathroom,sun_aoybiabnpadelefl.tif,151,1.5,0,1.65,6918.939118083,6923.171385542,2,NaN,6923.176913958,6923.195908542,6924.839277958,NaN,NaN
141,2,2,typicality,0,bathroom,sun_apkruvsevgegsdwp.tif,154,1.5,0,1.01666666666667,6924.8573845,6931.107259292,5,NaN,6931.113005625,6931.131317833,6932.14137125,NaN,NaN
141,3,2,typicality,0,bathroom,sun_ahijqszoswveeyji.tif,138,1.5,0,1.58333333333333,6932.149286458,6935.762692292,4,NaN,6935.768350458,6935.786689667,6937.363385125,NaN,NaN
141,4,2,typicality,0,bathroom,sun_aunuadmjocsddsrl.tif,162,1.5,0,0.7,6937.383435083,6940.794924167,7,NaN,6940.800712333,6940.819101542,6941.512442208,NaN,NaN
141,5,2,typicality,0,bathroom,sun_apkxzenqapsujocq.tif,155,1.5,0,1.23333333333333,6941.517615,6945.626528125,7,NaN,6945.632354042,6945.650756,6946.877472333,NaN,NaN
141,6,2,typicality,0,bathroom,sun_akiytfaagpdsphgz.tif,141,1.5,0,0.816666666666667,6946.8948595,6950.474581,4,NaN,6950.480372542,6950.498795,6951.308800167,NaN,NaN
141,7,2,typicality,0,bathroom,sun_agrwbmhcpmfuwmsg.tif,134,1.5,0,0.733333333333333,6951.314190625,6954.33310875,4,NaN,6954.345892583,6954.364513625,6955.091184625,NaN,NaN
141,8,2,typicality,0,bathroom,sun_agguqiubmwhqqunb.tif,132,1.5,0,1.15,6955.095753083,6959.339535042,2,NaN,6959.345269333,6959.363491708,6960.506863292,NaN,NaN
141,9,2,typicality,0,bathroom,sun_axyrejkiiaqiurjk.tif,169,1.5,0,0.933333333333333,6960.516952292,6965.986636333,3,NaN,6965.992278667,6966.010796042,6966.937467667,NaN,NaN
141,10,2,typicality,0,bathroom,sun_aavhrsfjbserjtht.tif,123,1.5,0,0.916666666666667,6966.942541792,6971.03495025,4,NaN,6971.040652917,6971.059028208,6971.969033042,NaN,NaN
141,11,2,typicality,0,bathroom,sun_avhrdrntsqrjzccq.tif,165,1.5,0,1.26666666666667,6971.973708958,6977.066579167,2,NaN,6977.072593042,6977.091043792,6978.351092917,NaN,NaN
141,12,2,typicality,0,bathroom,sun_aqrpegblszgcoujh.tif,158,1.5,0,0.933333333333333,6978.36802675,6987.082222458,2,NaN,6987.08885875,6987.10754675,6988.034217708,NaN,NaN
141,13,2,typicality,0,bathroom,sun_ambriybtogmepttm.tif,146,1.5,0,1,6988.043704792,6991.842824292,2,NaN,6991.848365083,6991.866769917,6992.860108083,NaN,NaN
141,14,2,typicality,0,bathroom,sun_acgyywnybuveqsro.tif,128,1.5,0,1,6992.864849167,6995.898031792,6,NaN,6995.914028125,6995.934123333,6996.927462125,NaN,NaN
141,15,2,typicality,0,bathroom,sun_aggnnqpdorgxpvce.tif,131,1.5,0,1.21666666666667,6996.932804542,7000.306526125,3,NaN,7000.312110833,7000.33031275,7001.540346667,NaN,NaN
141,16,2,typicality,0,bathroom,sun_apjevzvycyhuqghb.tif,153,1.5,0,1.85,7001.558254,7004.434751083,3,NaN,7004.440098792,7004.458416375,7006.301793417,NaN,NaN
141,17,2,typicality,0,bathroom,sun_aspsyogrekjtfozg.tif,160,1.5,0,0.766666666666667,7006.314520375,7009.286190792,3,NaN,7009.307636042,7009.330412625,7010.090416958,NaN,NaN
141,18,2,typicality,0,bathroom,sun_axxbkopsgyouuebh.tif,168,1.5,0,0.966666666666667,7010.095516542,7014.88210875,7,NaN,7014.88823025,7014.906594167,7015.866598833,NaN,NaN
141,19,2,typicality,0,bathroom,sun_ahaulkltgpkeeemi.tif,136,1.5,0,1.4,7015.871148583,7018.986711458,5,NaN,7018.992301125,7019.010904708,7020.404295958,NaN,NaN
141,20,2,typicality,0,bathroom,sun_apynckhmoftszqoq.tif,157,1.5,0,0.933333333333333,7020.422611167,7023.778407083,4,NaN,7023.784032,7023.802383667,7024.729055875,NaN,NaN
141,21,2,typicality,0,bathroom,sun_ahqjwnzgolcaoidx.tif,139,1.5,0,1.7,7024.73464875,7028.235104417,4,NaN,7028.240472417,7028.258850917,7029.952241875,NaN,NaN
141,22,2,typicality,0,bathroom,sun_ahcvzmoyaycdoftf.tif,137,1.5,0,0.916666666666667,7029.963883792,7034.482830958,6,NaN,7034.488400042,7034.506740958,7035.416747208,NaN,NaN
141,23,2,typicality,0,bathroom,sun_ausgutylgojavyoq.tif,163,1.5,0,0.833333333333333,7035.422328875,7038.802840167,3,NaN,7038.809196458,7038.827568667,7039.654239292,NaN,NaN
141,24,2,typicality,0,bathroom,sun_azqyogdvyhahyram.tif,170,1.5,0,0.783333333333333,7039.658975917,7043.234023708,5,NaN,7043.240020208,7043.25836675,7044.035037958,NaN,NaN
141,25,2,typicality,0,bathroom,sun_atstyziqcmkahyxk.tif,161,1.5,0,1.4,7044.043275417,7049.634977333,7,NaN,7049.641790208,7049.66038725,7051.053755583,NaN,NaN
