sub_num,trial,block,task,is_practice,category,image,texture,duration,mask_dur,jitter,stim_time,time_of_resp,trial_response,mask_time,fix_time,jit_onset,trial_end,trial_accuracy,RT
131,6,0,familiarity,1,kitchen,kitchen_practice2.tif,227,1.5,0,0.733333333333333,12896.394642833,12900.338775625,1,NaN,12900.344383,12900.362626916,12901.0893045,NaN,NaN
131,7,0,familiarity,1,kitchen,kitchen_practice3.tif,228,1.5,0,1.3,12901.095489583,12903.794920208,6,NaN,12903.8240985,12903.847385291,12905.140811458,NaN,NaN
131,8,0,familiarity,1,kitchen,kitchen_practice1.tif,226,1.5,0,2,12905.1603795,12908.058616458,2,NaN,12908.06430825,12908.082688208,12910.076083583,NaN,NaN
131,9,0,familiarity,1,kitchen,kitchen_practice5.tif,230,1.5,0,1.81666666666667,12910.098288125,12913.282705541,1,NaN,12913.309294375,12913.330028666,12915.140065458,NaN,NaN
131,10,0,familiarity,1,kitchen,kitchen_practice4.tif,229,1.5,0,0.75,12915.154372208,12918.433809833,3,NaN,12918.463508083,12918.485681166,12919.229023166,NaN,NaN
131,1,1,familiarity,0,kitchen,sun_acxkpeoqbwcxfvip.tif,187,1.5,0,0.866666666666667,12923.372474458,12926.330575791,5,NaN,12926.365633958,12926.392173958,12927.252253291,NaN,NaN
131,2,1,familiarity,0,kitchen,sun_aggjlwcdjsjcaemh.tif,196,1.5,0,1.01666666666667,12927.257641,12930.090026083,7,NaN,12930.120046458,12930.142217083,12931.152384208,NaN,NaN
131,3,1,familiarity,0,kitchen,sun_agorklincwxrdtga.tif,197,1.5,0,1.78333333333333,12931.161874958,12933.906040666,1,NaN,12933.911768458,12933.93012975,12935.706861666,NaN,NaN
131,4,1,familiarity,0,kitchen,sun_aadbddgrdsjugojn.tif,174,1.5,0,1.85,12935.725066708,12939.019801375,5,NaN,12939.044423125,12939.067001458,12940.910431291,NaN,NaN
131,5,1,familiarity,0,kitchen,sun_ahdycvpopffkzzsu.tif,200,1.5,0,1.83333333333333,12940.930745333,12944.370896208,7,NaN,12944.37845875,12944.396975791,12946.223725291,NaN,NaN
131,6,1,familiarity,0,kitchen,sun_ahljzhgcdpomplvg.tif,201,1.5,0,1.56666666666667,12946.242963666,12949.419820166,6,NaN,12949.445294708,12949.467561125,12951.027640916,NaN,NaN
131,7,1,familiarity,0,kitchen,sun_agzzivivdpnawacl.tif,199,1.5,0,1.31666666666667,12951.047615208,12954.355165916,1,NaN,12954.384349875,12954.407704333,12955.717791291,NaN,NaN
131,8,1,familiarity,0,kitchen,sun_ahspylgoovwmwvgk.tif,203,1.5,0,1.75,12955.736695,12958.96979575,5,NaN,12958.975884,12958.994183833,12960.737614708,NaN,NaN
131,9,1,familiarity,0,kitchen,sun_azmutvzbxypaceni.tif,220,1.5,0,1.9,12960.755156208,12964.047346166,6,NaN,12964.078386541,12964.101764166,12965.995152875,NaN,NaN
131,10,1,familiarity,0,kitchen,sun_agubuxuukhzyzpdp.tif,198,1.5,0,1.76666666666667,12966.012149583,12969.658285666,3,NaN,12969.663978041,12969.682452708,12971.4425375,NaN,NaN
131,11,1,familiarity,0,kitchen,labelme_kxvouciolcpqplr.tif,172,1.5,0,1.05,12971.462948166,12976.29786825,2,NaN,12976.303647,12976.322074083,12977.365485458,NaN,NaN
131,12,1,familiarity,0,kitchen,labelme_brsyyvweiuaazfr.tif,171,1.5,0,1.58333333333333,12977.375604041,12980.545427125,7,NaN,12980.551406666,12980.569807041,12982.146546291,NaN,NaN
131,13,1,familiarity,0,kitchen,sun_aegoxogugdkwpmpj.tif,190,1.5,0,0.983333333333333,12982.165115958,12986.786409083,2,NaN,12986.792079916,12986.810524041,12987.787201583,NaN,NaN
131,14,1,familiarity,0,kitchen,sun_adgqasybjyktddhj.tif,188,1.5,0,0.733333333333333,12987.791661125,12990.575565875,7,NaN,12990.604694625,12990.628078541,12991.35475475,NaN,NaN
131,15,1,familiarity,0,kitchen,sun_akchetnepxlcxhsu.tif,208,1.5,0,1.13333333333333,12991.360323708,12995.001384291,4,NaN,12995.007584541,12995.026095916,12996.152828583,NaN,NaN
131,16,1,familiarity,0,kitchen,sun_acgtpgfybqjmzeyw.tif,185,1.5,0,1.58333333333333,12996.161273,12999.786307916,6,NaN,12999.792165,12999.810601166,13001.387335458,NaN,NaN
131,17,1,familiarity,0,kitchen,sun_abrcnpqqhmjwekyf.tif,183,1.5,0,0.783333333333333,13001.397723541,13006.650152333,5,NaN,13006.655635333,13006.673935375,13007.450610625,NaN,NaN
131,18,1,familiarity,0,kitchen,sun_aapllqyqlykszopd.tif,176,1.5,0,0.8,13007.455393041,13010.579712375,7,NaN,13010.589430833,13010.608378458,13011.401719125,NaN,NaN
131,19,1,familiarity,0,kitchen,sun_aymvwlarqodbwuoc.tif,218,1.5,0,1.7,13011.406351875,13015.56995325,4,NaN,13015.575604,13015.593895125,13017.28731175,NaN,NaN
131,20,1,familiarity,0,kitchen,sun_abftihopvusyfakt.tif,181,1.5,0,1.48333333333333,13017.295985041,13021.762069208,6,NaN,13021.767573166,13021.785963333,13023.262701166,NaN,NaN
131,21,1,familiarity,0,kitchen,sun_acwjdupvyjsugpay.tif,186,1.5,0,0.966666666666667,13023.272674375,13027.362216166,7,NaN,13027.368077666,13027.386350625,13028.346360166,NaN,NaN
131,22,1,familiarity,0,kitchen,sun_aexklacwqwezaorf.tif,194,1.5,0,1.28333333333333,13028.350748125,13031.86620125,4,NaN,13031.871786458,13031.890266,13033.167012166,NaN,NaN
131,23,1,familiarity,0,kitchen,sun_auaiucuqpdausiva.tif,212,1.5,0,0.783333333333333,13033.185032083,13036.257742208,1,NaN,13036.263276416,13036.281559708,13037.058234916,NaN,NaN
131,24,1,familiarity,0,kitchen,sun_aamedkxepzlwuxes.tif,175,1.5,0,1.36666666666667,13037.062747541,13042.7219535,2,NaN,13042.727568708,13042.745873125,13044.105946125,NaN,NaN
131,25,1,familiarity,0,kitchen,labelme_rykdqxenmhulbdn.tif,173,1.5,0,1.45,13044.124311541,13046.881548708,7,NaN,13046.88738725,13046.905761625,13048.349164,NaN,NaN
131,1,2,familiarity,0,kitchen,sun_ajcbwwvdlsvjyzje.tif,206,1.5,0,1.81666666666667,13052.854783708,13055.827364416,2,NaN,13055.856907625,13055.880120166,13057.690177458,NaN,NaN
131,2,2,familiarity,0,kitchen,sun_aypmqwcualkenuoe.tif,219,1.5,0,0.816666666666667,13057.705083333,13061.105618375,1,NaN,13061.112873333,13061.131304125,13061.941311125,NaN,NaN
131,3,2,familiarity,0,kitchen,sun_ahpczsiumwwocjkv.tif,202,1.5,0,0.9,13061.946032,13065.081587291,2,NaN,13065.094632166,13065.113573958,13066.006917291,NaN,NaN
131,4,2,familiarity,0,kitchen,sun_acfmftudsenhrfhy.tif,184,1.5,0,0.933333333333333,13066.011536541,13069.069345875,2,NaN,13069.094997333,13069.11518875,13070.041865708,NaN,NaN
131,5,2,familiarity,0,kitchen,sun_afuyedyxivkhecmu.tif,195,1.5,0,1.48333333333333,13070.058391875,13074.386091583,1,NaN,13074.391778125,13074.410126916,13075.886873041,NaN,NaN
131,6,2,familiarity,0,kitchen,sun_axyyrmzcupyhlivc.tif,217,1.5,0,1.48333333333333,13075.905790416,13079.169152625,3,NaN,13079.175117125,13079.193664416,13080.670408375,NaN,NaN
131,7,2,familiarity,0,kitchen,sun_aenotlpyftoioydp.tif,192,1.5,0,1.43333333333333,13080.693036,13085.009999416,4,NaN,13085.015447708,13085.033875208,13086.460618833,NaN,NaN
131,8,2,familiarity,0,kitchen,sun_avszsnwsbuqfgzbn.tif,215,1.5,0,0.733333333333333,13086.479918166,13090.345737625,4,NaN,13090.351238708,13090.369550291,13091.096224333,NaN,NaN
131,9,2,familiarity,0,kitchen,sun_abpwyqmlzafvklqo.tif,182,1.5,0,0.966666666666667,13091.108245541,13094.545913916,1,NaN,13094.551366708,13094.569718791,13095.529728083,NaN,NaN
131,10,2,familiarity,0,kitchen,sun_aixorpehvfykdynp.tif,205,1.5,0,0.916666666666667,13095.5344225,13099.033497708,4,NaN,13099.0392635,13099.057599791,13099.967610166,NaN,NaN
131,11,2,familiarity,0,kitchen,sun_abdxkyyxwfskuaqb.tif,180,1.5,0,1.03333333333333,13099.974897416,13103.145331708,1,NaN,13103.151305583,13103.169792041,13104.196527833,NaN,NaN
131,12,2,familiarity,0,kitchen,sun_abdenxonkemggwsq.tif,179,1.5,0,0.733333333333333,13104.209107916,13108.217718125,4,NaN,13108.2231755,13108.242008458,13108.968683791,NaN,NaN
131,13,2,familiarity,0,kitchen,sun_aehawpgmrlhlvcow.tif,191,1.5,0,1.13333333333333,13108.974704416,13112.361175416,5,NaN,13112.367072625,13112.385513583,13113.512264333,NaN,NaN
131,14,2,familiarity,0,kitchen,sun_ajkqhtgcbgpcwrwn.tif,207,1.5,0,0.883333333333333,13113.521181166,13116.649383625,1,NaN,13116.655222958,13116.673504541,13117.550178708,NaN,NaN
131,15,2,familiarity,0,kitchen,sun_aarfiyshqohlwkmo.tif,177,1.5,0,1.85,13117.554667291,13121.937053125,4,NaN,13121.943493166,13121.961712375,13123.805142166,NaN,NaN
131,16,2,familiarity,0,kitchen,sun_aeqdocilnnpuvuhx.tif,193,1.5,0,0.733333333333333,13123.823126875,13126.753785333,1,NaN,13126.759274041,13126.777593,13127.504271708,NaN,NaN
131,17,2,familiarity,0,kitchen,sun_aqeaevwwwjoqhzvl.tif,211,1.5,0,1.95,13127.509572458,13130.424811958,1,NaN,13130.453967666,13130.477392458,13132.420813666,NaN,NaN
131,18,2,familiarity,0,kitchen,sun_auticobqsbwgoppi.tif,214,1.5,0,1.1,13132.439239,13135.729195458,6,NaN,13135.735429791,13135.753842375,13136.847226833,NaN,NaN
131,19,2,familiarity,0,kitchen,sun_aaxxjlsuzvqlgylf.tif,178,1.5,0,1.31666666666667,13136.856955,13139.569672791,6,NaN,13139.575345416,13139.59358325,13140.903659958,NaN,NaN
131,20,2,familiarity,0,kitchen,sun_amjjdeyrggfqgmom.tif,210,1.5,0,1.78333333333333,13140.920145666,13145.3447755,1,NaN,13145.351605333,13145.370213333,13147.146949958,NaN,NaN
131,21,2,familiarity,0,kitchen,sun_aunzlwrbjumxhwdj.tif,213,1.5,0,1.33333333333333,13147.168544041,13150.729065125,1,NaN,13150.736148541,13150.754532041,13152.08127475,NaN,NaN
131,22,2,familiarity,0,kitchen,sun_awcpdzzznmweyyhv.tif,216,1.5,0,0.95,13152.100575708,13155.105537708,3,NaN,13155.111083958,13155.12945325,13156.072794833,NaN,NaN
131,23,2,familiarity,0,kitchen,sun_akcjzhbbjlbogpdi.tif,209,1.5,0,1.93333333333333,13156.091242208,13160.641632125,1,NaN,13160.647497875,13160.666193875,13162.592927791,NaN,NaN
131,24,2,familiarity,0,kitchen,sun_ahywdevtimnqcsln.tif,204,1.5,0,1.28333333333333,13162.612281666,13166.241105458,3,NaN,13166.2468245,13166.265153625,13167.541886083,NaN,NaN
131,25,2,familiarity,0,kitchen,sun_admlmbcdswaszruo.tif,189,1.5,0,1.43333333333333,13167.556542625,13171.641725208,6,NaN,13171.647402458,13171.665711208,13173.09244575,NaN,NaN
