sub_num,trial,block,task,is_practice,category,image,texture,duration,mask_dur,jitter,stim_time,time_of_resp,trial_response,mask_time,fix_time,jit_onset,trial_end,trial_accuracy,RT
115,6,0,familiarity,1,kitchen,kitchen_practice2.tif,227,1.5,0,0.733333333333333,13183.056846417,13187.084208,1,NaN,13187.089554917,13187.108039792,13187.834710667,NaN,NaN
115,7,0,familiarity,1,kitchen,kitchen_practice3.tif,228,1.5,0,1.3,13187.83914275,13192.068241584,3,NaN,13192.073585792,13192.091984625,13193.385361584,NaN,NaN
115,8,0,familiarity,1,kitchen,kitchen_practice1.tif,226,1.5,0,2,13193.401177167,13196.23597825,1,NaN,13196.241351292,13196.259891,13198.253261,NaN,NaN
115,9,0,familiarity,1,kitchen,kitchen_practice5.tif,230,1.5,0,1.81666666666667,13198.273350417,13201.715979917,3,NaN,13201.721358542,13201.739801209,13203.549854167,NaN,NaN
115,10,0,familiarity,1,kitchen,kitchen_practice4.tif,229,1.5,0,0.75,13203.568518792,13207.027649875,3,NaN,13207.038147792,13207.057635292,13207.800974834,NaN,NaN
115,1,1,familiarity,0,kitchen,sun_acxkpeoqbwcxfvip.tif,187,1.5,0,0.866666666666667,13212.899180125,13215.663469584,1,NaN,13215.695549334,13215.723745792,13216.58388125,NaN,NaN
115,2,1,familiarity,0,kitchen,sun_aggjlwcdjsjcaemh.tif,196,1.5,0,1.01666666666667,13216.590264875,13219.755251459,5,NaN,13219.761289167,13219.779792042,13220.789974375,NaN,NaN
115,3,1,familiarity,0,kitchen,sun_agorklincwxrdtga.tif,197,1.5,0,1.78333333333333,13220.800870834,13223.820182792,3,NaN,13223.825720792,13223.844146292,13225.620869459,NaN,NaN
115,4,1,familiarity,0,kitchen,sun_aadbddgrdsjugojn.tif,174,1.5,0,1.85,13225.639513625,13228.903680667,3,NaN,13228.929158959,13228.952907875,13230.796279459,NaN,NaN
115,5,1,familiarity,0,kitchen,sun_ahdycvpopffkzzsu.tif,200,1.5,0,1.83333333333333,13230.816486792,13233.628924334,6,NaN,13233.656323209,13233.680341709,13235.507053542,NaN,NaN
115,6,1,familiarity,0,kitchen,sun_ahljzhgcdpomplvg.tif,201,1.5,0,1.56666666666667,13235.5281455,13238.243253584,5,NaN,13238.27212725,13238.295968709,13239.856018834,NaN,NaN
115,7,1,familiarity,0,kitchen,sun_agzzivivdpnawacl.tif,199,1.5,0,1.31666666666667,13239.876715792,13243.32392575,5,NaN,13243.3292165,13243.347561959,13244.65761925,NaN,NaN
115,8,1,familiarity,0,kitchen,sun_ahspylgoovwmwvgk.tif,203,1.5,0,1.75,13244.67368575,13247.515231542,4,NaN,13247.521025542,13247.539465209,13249.282840917,NaN,NaN
115,9,1,familiarity,0,kitchen,sun_azmutvzbxypaceni.tif,220,1.5,0,1.9,13249.2981605,13253.259779917,4,NaN,13253.265177667,13253.283640834,13255.177022125,NaN,NaN
115,10,1,familiarity,0,kitchen,sun_agubuxuukhzyzpdp.tif,198,1.5,0,1.76666666666667,13255.197663959,13257.927060459,2,NaN,13257.952926875,13257.976617959,13259.736655667,NaN,NaN
115,11,1,familiarity,0,kitchen,labelme_kxvouciolcpqplr.tif,172,1.5,0,1.05,13259.75548125,13263.18774425,4,NaN,13263.196171875,13263.214700667,13264.258085667,NaN,NaN
115,12,1,familiarity,0,kitchen,labelme_brsyyvweiuaazfr.tif,171,1.5,0,1.58333333333333,13264.274058167,13267.25144575,3,NaN,13267.257047334,13267.275371209,13268.852088125,NaN,NaN
115,13,1,familiarity,0,kitchen,sun_aegoxogugdkwpmpj.tif,190,1.5,0,0.983333333333333,13268.868048042,13272.004814417,4,NaN,13272.033428167,13272.057468,13273.034139625,NaN,NaN
115,14,1,familiarity,0,kitchen,sun_adgqasybjyktddhj.tif,188,1.5,0,0.733333333333333,13273.039711042,13275.86293775,4,NaN,13275.87826175,13275.9003945,13276.627068417,NaN,NaN
115,15,1,familiarity,0,kitchen,sun_akchetnepxlcxhsu.tif,208,1.5,0,1.13333333333333,13276.632890917,13279.484251042,4,NaN,13279.507170417,13279.530629875,13280.657347709,NaN,NaN
115,16,1,familiarity,0,kitchen,sun_acgtpgfybqjmzeyw.tif,185,1.5,0,1.58333333333333,13280.669889459,13284.986918125,5,NaN,13284.992763125,13285.01128475,13286.588001,NaN,NaN
115,17,1,familiarity,0,kitchen,sun_abrcnpqqhmjwekyf.tif,183,1.5,0,0.783333333333333,13286.605559917,13290.890899417,4,NaN,13290.896766542,13290.915220042,13291.69189275,NaN,NaN
115,18,1,familiarity,0,kitchen,sun_aapllqyqlykszopd.tif,176,1.5,0,0.8,13291.697266667,13294.415591209,3,NaN,13294.438634417,13294.462703209,13295.256041417,NaN,NaN
115,19,1,familiarity,0,kitchen,sun_aymvwlarqodbwuoc.tif,218,1.5,0,1.7,13295.261344792,13297.926895209,2,NaN,13297.953818209,13297.977470625,13299.670853084,NaN,NaN
115,20,1,familiarity,0,kitchen,sun_abftihopvusyfakt.tif,181,1.5,0,1.48333333333333,13299.688605,13302.1909265,3,NaN,13302.21797075,13302.241394125,13303.718100834,NaN,NaN
115,21,1,familiarity,0,kitchen,sun_acwjdupvyjsugpay.tif,186,1.5,0,0.966666666666667,13303.735841542,13309.891233542,3,NaN,13309.896879584,13309.91547175,13310.875477917,NaN,NaN
115,22,1,familiarity,0,kitchen,sun_aexklacwqwezaorf.tif,194,1.5,0,1.28333333333333,13310.880659417,13313.994882709,1,NaN,13314.001837792,13314.020332125,13315.297042584,NaN,NaN
115,23,1,familiarity,0,kitchen,sun_auaiucuqpdausiva.tif,212,1.5,0,0.783333333333333,13315.309637959,13318.11534175,1,NaN,13318.120919625,13318.139376959,13318.916048834,NaN,NaN
115,24,1,familiarity,0,kitchen,sun_aamedkxepzlwuxes.tif,175,1.5,0,1.36666666666667,13318.921371917,13321.67877275,3,NaN,13321.706363542,13321.730532792,13323.090565459,NaN,NaN
115,25,1,familiarity,0,kitchen,labelme_rykdqxenmhulbdn.tif,173,1.5,0,1.45,13323.101147875,13326.291538,3,NaN,13326.296787875,13326.315253959,13327.758641542,NaN,NaN
115,1,2,familiarity,0,kitchen,sun_ajcbwwvdlsvjyzje.tif,206,1.5,0,1.81666666666667,13333.878959,13336.808423875,4,NaN,13336.837065334,13336.861736167,13338.671919542,NaN,NaN
115,2,2,familiarity,0,kitchen,sun_aypmqwcualkenuoe.tif,219,1.5,0,0.816666666666667,13338.693125542,13341.431637,3,NaN,13341.46030525,13341.483380959,13342.29338975,NaN,NaN
115,3,2,familiarity,0,kitchen,sun_ahpczsiumwwocjkv.tif,202,1.5,0,0.9,13342.298359292,13345.451299209,3,NaN,13345.460026375,13345.479168375,13346.372507959,NaN,NaN
115,4,2,familiarity,0,kitchen,sun_acfmftudsenhrfhy.tif,184,1.5,0,0.933333333333333,13346.377795209,13350.14765875,3,NaN,13350.153156084,13350.171566625,13351.098237334,NaN,NaN
115,5,2,familiarity,0,kitchen,sun_afuyedyxivkhecmu.tif,195,1.5,0,1.48333333333333,13351.103128209,13354.459339667,2,NaN,13354.464575417,13354.48292,13355.959624834,NaN,NaN
115,6,2,familiarity,0,kitchen,sun_axyyrmzcupyhlivc.tif,217,1.5,0,1.48333333333333,13355.975359167,13359.219548125,4,NaN,13359.2249375,13359.243290167,13360.720000292,NaN,NaN
115,7,2,familiarity,0,kitchen,sun_aenotlpyftoioydp.tif,192,1.5,0,1.43333333333333,13360.739161875,13363.37953,3,NaN,13363.3849255,13363.403267209,13364.8299735,NaN,NaN
115,8,2,familiarity,0,kitchen,sun_avszsnwsbuqfgzbn.tif,215,1.5,0,0.733333333333333,13364.84854975,13368.090810167,1,NaN,13368.096762292,13368.115179667,13368.841853459,NaN,NaN
115,9,2,familiarity,0,kitchen,sun_abpwyqmlzafvklqo.tif,182,1.5,0,0.966666666666667,13368.846994917,13371.3951615,4,NaN,13371.423153417,13371.447143209,13372.407147292,NaN,NaN
115,10,2,familiarity,0,kitchen,sun_aixorpehvfykdynp.tif,205,1.5,0,0.916666666666667,13372.412499042,13375.70742825,3,NaN,13375.712684375,13375.731029042,13376.641034625,NaN,NaN
115,11,2,familiarity,0,kitchen,sun_abdxkyyxwfskuaqb.tif,180,1.5,0,1.03333333333333,13376.646179084,13379.422759375,2,NaN,13379.448045084,13379.471773,13380.4984805,NaN,NaN
115,12,2,familiarity,0,kitchen,sun_abdenxonkemggwsq.tif,179,1.5,0,0.733333333333333,13380.509200709,13383.578846667,2,NaN,13383.584498292,13383.602958084,13384.329629542,NaN,NaN
115,13,2,familiarity,0,kitchen,sun_aehawpgmrlhlvcow.tif,191,1.5,0,1.13333333333333,13384.334713167,13387.3878355,2,NaN,13387.412619917,13387.433074667,13388.559775209,NaN,NaN
115,14,2,familiarity,0,kitchen,sun_ajkqhtgcbgpcwrwn.tif,207,1.5,0,0.883333333333333,13388.568626,13391.699090709,5,NaN,13391.704568209,13391.722921042,13392.599594,NaN,NaN
115,15,2,familiarity,0,kitchen,sun_aarfiyshqohlwkmo.tif,177,1.5,0,1.85,13392.609151959,13395.539379292,3,NaN,13395.567423125,13395.591118292,13397.434503,NaN,NaN
115,16,2,familiarity,0,kitchen,sun_aeqdocilnnpuvuhx.tif,193,1.5,0,0.733333333333333,13397.453677875,13400.438329334,3,NaN,13400.466851209,13400.490791709,13401.2174635,NaN,NaN
115,17,2,familiarity,0,kitchen,sun_aqeaevwwwjoqhzvl.tif,211,1.5,0,1.95,13401.222646709,13403.699204834,2,NaN,13403.726540084,13403.749936125,13405.693303,NaN,NaN
115,18,2,familiarity,0,kitchen,sun_auticobqsbwgoppi.tif,214,1.5,0,1.1,13405.713427459,13408.354992167,6,NaN,13408.382895375,13408.406573,13409.499943792,NaN,NaN
115,19,2,familiarity,0,kitchen,sun_aaxxjlsuzvqlgylf.tif,178,1.5,0,1.31666666666667,13409.512753167,13412.427464875,3,NaN,13412.432851542,13412.451251584,13413.761292292,NaN,NaN
115,20,2,familiarity,0,kitchen,sun_amjjdeyrggfqgmom.tif,210,1.5,0,1.78333333333333,13413.780947334,13416.938648042,4,NaN,13416.94441975,13416.962645709,13418.739369375,NaN,NaN
115,21,2,familiarity,0,kitchen,sun_aunzlwrbjumxhwdj.tif,213,1.5,0,1.33333333333333,13418.75575475,13421.706448834,4,NaN,13421.735296542,13421.7598125,13423.086492417,NaN,NaN
115,22,2,familiarity,0,kitchen,sun_awcpdzzznmweyyhv.tif,216,1.5,0,0.95,13423.095762834,13426.018427209,5,NaN,13426.024264584,13426.04276125,13426.986100875,NaN,NaN
115,23,2,familiarity,0,kitchen,sun_akcjzhbbjlbogpdi.tif,209,1.5,0,1.93333333333333,13426.991624375,13430.370902375,3,NaN,13430.376542792,13430.394869209,13432.321585917,NaN,NaN
115,24,2,familiarity,0,kitchen,sun_ahywdevtimnqcsln.tif,204,1.5,0,1.28333333333333,13432.340421292,13435.643238167,5,NaN,13435.64977275,13435.668105959,13436.944817834,NaN,NaN
115,25,2,familiarity,0,kitchen,sun_admlmbcdswaszruo.tif,189,1.5,0,1.43333333333333,13436.95982275,13439.826790292,4,NaN,13439.832194209,13439.850521542,13441.277236875,NaN,NaN
