sub_num,trial,block,task,is_practice,category,image,texture,duration,mask_dur,jitter,stim_time,time_of_resp,trial_response,mask_time,fix_time,jit_onset,trial_end,trial_accuracy,RT
102,1,13,categorization,0,bathroom,SHINEd_sun_apjevzvycyhuqghb.tif,43,0.0666666666666667,0.0666666666666667,0.933333333333333,16682.337015125,16683.11218025,13,16682.399761625,16682.459809125,16683.128147084,16684.054820792,1,0.775165125000058
102,2,13,categorization,0,kitchen,SHINEd_sun_akchetnepxlcxhsu.tif,98,0.0666666666666667,0.0666666666666667,1.36666666666667,16684.060549667,16684.792193167,13,16684.122119792,16684.183276834,16684.802245417,16686.162289,0,0.731643499999336
102,3,13,categorization,0,bathroom,SHINEd_sun_atstyziqcmkahyxk.tif,51,0.0666666666666667,0.0666666666666667,1.88333333333333,16686.1748245,16687.001792584,13,16686.241366292,16686.305391125,16687.028376167,16688.905083917,1,0.826968083998509
102,4,13,categorization,0,bathroom,SHINEd_sun_agrwbmhcpmfuwmsg.tif,24,0.0666666666666667,0.0666666666666667,1.35,16688.919991417,16689.72351475,13,16688.988243542,16689.052816375,16689.742620875,16691.0860035,1,0.803523333001067
102,5,13,categorization,0,bathroom,SHINEd_sun_aavhrsfjbserjtht.tif,13,0.0666666666666667,0.0666666666666667,1.3,16691.10380575,16692.168947167,13,16691.170961917,16691.236647667,16692.193385542,16693.486757,1,1.06514141699881
102,6,13,categorization,0,bathroom,SHINEd_sun_ambriybtogmepttm.tif,36,0.0666666666666667,0.0666666666666667,1.93333333333333,16693.505777959,16694.455491125,13,16693.572075167,16693.638813834,16694.479326167,16696.406035292,1,0.949713166002766
102,7,13,categorization,0,bathroom,SHINEd_sun_amzlamotzwfkwjco.tif,37,0.0666666666666667,0.0666666666666667,0.95,16696.424573334,16697.871708792,13,16696.49177325,16696.55728425,16697.876424209,16698.81976175,1,1.44713545800187
102,8,13,categorization,0,kitchen,SHINEd_sun_agzzivivdpnawacl.tif,89,0.0666666666666667,0.0666666666666667,1.56666666666667,16698.825313292,16699.511806042,13,16698.887153209,16698.948007584,16699.516584125,16701.076629,0,0.686492749999161
102,9,13,categorization,0,kitchen,SHINEd_sun_ahdycvpopffkzzsu.tif,90,0.0666666666666667,0.0666666666666667,1.3,16701.095144792,16702.601409917,13,16701.161378459,16701.227890959,16702.619669875,16703.913038917,0,1.5062651249973
102,10,13,categorization,0,bathroom,SHINEd_sun_avhrdrntsqrjzccq.tif,55,0.0666666666666667,0.0666666666666667,1.3,16703.93077225,16704.759868042,13,16703.997038209,16704.06333,16704.786643459,16706.080036125,1,0.829095791999862
102,11,13,categorization,0,bathroom,SHINEd_sun_agyqfjcfkdcydepw.tif,25,0.0666666666666667,0.0666666666666667,1.03333333333333,16706.098892667,16706.770936917,9,16706.165295,16706.23159725,16706.787698292,16707.81441,0,0.672044250000909
102,12,13,categorization,0,kitchen,SHINEd_sun_aadbddgrdsjugojn.tif,64,0.0666666666666667,0.0666666666666667,1.93333333333333,16707.831250459,16708.471379417,9,16707.897866667,16707.964022084,16708.486564,16710.413272375,1,0.640128957998968
102,13,13,categorization,0,kitchen,SHINEd_sun_abftihopvusyfakt.tif,71,0.0666666666666667,0.0666666666666667,0.966666666666667,16710.431790584,16711.197503292,9,16710.498175375,16710.564417667,16711.221324042,16712.181329084,1,0.765712708001956
102,14,13,categorization,0,bathroom,SHINEd_sun_aunuadmjocsddsrl.tif,52,0.0666666666666667,0.0666666666666667,0.916666666666667,16712.187077167,16713.424177667,9,16712.248827834,16712.309765667,16713.428858,16714.33886275,0,1.23710049999863
102,15,13,categorization,0,kitchen,SHINEd_sun_acxkpeoqbwcxfvip.tif,77,0.0666666666666667,0.0666666666666667,1.3,16714.343465292,16715.304378667,9,16714.40514675,16714.465969292,16715.318179167,16716.611550834,1,0.960913374998199
102,16,13,categorization,0,bathroom,SHINEd_sun_aqrpegblszgcoujh.tif,48,0.0666666666666667,0.0666666666666667,0.75,16716.629412792,16717.499241167,9,16716.696432334,16716.762052292,16717.518421959,16718.261800625,0,0.869828374998178
102,17,13,categorization,0,kitchen,SHINEd_sun_abpwyqmlzafvklqo.tif,72,0.0666666666666667,0.0666666666666667,1.03333333333333,16718.271356875,16719.167840917,9,16718.336327917,16718.395726459,16719.181386,16720.208098667,1,0.896484042001248
102,18,13,categorization,0,kitchen,SHINEd_sun_aixorpehvfykdynp.tif,95,0.0666666666666667,0.0666666666666667,1.28333333333333,16720.220729584,16720.932427709,9,16720.285641375,16720.351998209,16720.958390584,16722.235099792,1,0.711698125000112
102,19,13,categorization,0,kitchen,SHINEd_sun_ahljzhgcdpomplvg.tif,91,0.0666666666666667,0.0666666666666667,1.25,16722.25223225,16724.279553792,9,16722.3147555,16722.37493325,16724.293833,16725.537200459,1,2.02732154199839
102,20,13,categorization,0,kitchen,SHINEd_sun_aapllqyqlykszopd.tif,66,0.0666666666666667,0.0666666666666667,1.75,16725.552158167,16726.284317417,13,16725.618514917,16725.684973834,16726.306787959,16728.050166792,0,0.732159250001132
102,21,13,categorization,0,bathroom,SHINEd_labelme_sfxiulhjbhlyiyt.tif,11,0.0666666666666667,0.0666666666666667,1.76666666666667,16728.068826292,16728.919114167,13,16728.135326875,16728.201696292,16728.942398709,16730.702455167,1,0.850287875000504
102,22,13,categorization,0,bathroom,SHINEd_sun_anryaplzeujmzfkd.tif,39,0.0666666666666667,0.0666666666666667,0.733333333333333,16730.719487542,16731.6282975,9,16730.786573375,16730.852254167,16731.65890725,16732.385580667,0,0.908809958000347
102,23,13,categorization,0,bathroom,SHINEd_sun_ausgutylgojavyoq.tif,53,0.0666666666666667,0.0666666666666667,1.43333333333333,16732.391507667,16733.136379959,13,16732.453266209,16732.51430175,16733.14965875,16734.576367125,1,0.744872292001673
102,24,13,categorization,0,bathroom,SHINEd_sun_axldvoqbuvuggfmq.tif,57,0.0666666666666667,0.0666666666666667,1.81666666666667,16734.59368275,16735.325257167,9,16734.660055042,16734.726609542,16735.349974375,16737.160021917,0,0.731574416997319
102,25,13,categorization,0,bathroom,SHINEd_sun_axxbkopsgyouuebh.tif,58,0.0666666666666667,0.0666666666666667,0.95,16737.177335959,16737.824888459,13,16737.244090084,16737.30989875,16737.848348625,16738.791688209,1,0.64755249999871
102,26,13,categorization,0,bathroom,SHINEd_sun_aofnryafpsjimzsb.tif,40,0.0666666666666667,0.0666666666666667,0.783333333333333,16738.797472792,16740.456296375,9,16738.859246375,16738.920213584,16740.472682209,16741.249354834,0,1.65882358299859
102,27,13,categorization,0,kitchen,SHINEd_sun_axyyrmzcupyhlivc.tif,107,0.0666666666666667,0.0666666666666667,1.66666666666667,16741.255028084,16742.016007959,9,16741.316854417,16741.3776765,16742.02951675,16743.689567584,1,0.760979874998156
102,28,13,categorization,0,bathroom,SHINEd_sun_agguqiubmwhqqunb.tif,22,0.0666666666666667,0.0666666666666667,1.18333333333333,16743.707439792,16744.5277515,9,16743.774442917,16743.836910417,16744.5427215,16745.719431375,0,0.8203117080011
102,29,13,categorization,0,kitchen,SHINEd_sun_ahywdevtimnqcsln.tif,94,0.0666666666666667,0.0666666666666667,1.58333333333333,16745.729770667,16746.94658675,9,16745.797126334,16745.862469792,16746.969401167,16748.546106917,1,1.21681608300059
102,30,13,categorization,0,bathroom,SHINEd_sun_aapitsgbtktqubfy.tif,12,0.0666666666666667,0.0666666666666667,1.1,16748.564253709,16749.949591209,13,16748.630548542,16748.697122959,16749.973278625,16751.066666875,1,1.38533749999988
102,31,13,categorization,0,kitchen,SHINEd_sun_akcjzhbbjlbogpdi.tif,99,0.0666666666666667,0.0666666666666667,1.78333333333333,16751.078214125,16751.896886,9,16751.1430805,16751.209929917,16751.916254625,16753.692974084,1,0.818671875000291
102,32,13,categorization,0,kitchen,SHINEd_labelme_rykdqxenmhulbdn.tif,63,0.0666666666666667,0.0666666666666667,1.78333333333333,16753.708491459,16755.871631042,13,16753.775164042,16753.841885625,16755.877591334,16757.654297625,0,2.16313958299725
102,33,13,categorization,0,kitchen,SHINEd_sun_abdxkyyxwfskuaqb.tif,70,0.0666666666666667,0.0666666666666667,1.08333333333333,16757.672158709,16758.551880834,9,16757.738963875,16757.804834375,16758.578159584,16759.65488,1,0.879722124998807
102,34,13,categorization,0,kitchen,SHINEd_sun_adgqasybjyktddhj.tif,78,0.0666666666666667,0.0666666666666667,1.66666666666667,16759.668069042,16760.427287334,13,16759.732990125,16759.798556584,16760.454794167,16762.114830125,0,0.759218292001606
102,35,13,categorization,0,kitchen,SHINEd_sun_agubuxuukhzyzpdp.tif,88,0.0666666666666667,0.0666666666666667,1.58333333333333,16762.135246292,16763.029044542,13,16762.201991917,16762.2654315,16763.055444209,16764.632162709,0,0.893798249999236
102,36,13,categorization,0,bathroom,SHINEd_sun_apkruvsevgegsdwp.tif,44,0.0666666666666667,0.0666666666666667,1.26666666666667,16764.651603334,16765.443015125,13,16764.718585417,16764.784717542,16765.457311084,16766.717377042,1,0.791411791000428
102,37,13,categorization,0,bathroom,SHINEd_sun_auzqhkafidnkrwmo.tif,54,0.0666666666666667,0.0666666666666667,0.966666666666667,16766.735536709,16767.6323175,9,16766.801824792,16766.868051917,16767.658086709,16768.6180945,0,0.89678079100122
102,38,13,categorization,0,kitchen,SHINEd_sun_auticobqsbwgoppi.tif,104,0.0666666666666667,0.0666666666666667,0.9,16768.624082167,16769.455536542,13,16768.685666167,16768.74692125,16769.465532084,16770.35886925,0,0.83145437499843
102,39,13,categorization,0,bathroom,SHINEd_sun_aclfzgynxzxlbepz.tif,19,0.0666666666666667,0.0666666666666667,1.46666666666667,16770.363868709,16771.984092875,13,16770.425714167,16770.48650325,16771.988747084,16773.448781625,1,1.62022416600303
102,40,13,categorization,0,bathroom,SHINEd_sun_alotolagknyrgtsk.tif,35,0.0666666666666667,0.0666666666666667,1.5,16773.469672584,16774.13938125,9,16773.536435959,16773.60242875,16774.158903042,16775.652281875,0,0.669708665998769
102,41,13,categorization,0,kitchen,SHINEd_labelme_brsyyvweiuaazfr.tif,61,0.0666666666666667,0.0666666666666667,0.716666666666667,16775.6699175,16776.433686834,9,16775.736500167,16775.803063459,16776.460066959,16777.170128125,1,0.763769334000244
102,42,13,categorization,0,bathroom,SHINEd_sun_asfwthctfqerjvxr.tif,49,0.0666666666666667,0.0666666666666667,1.5,16777.187153375,16777.895746334,9,16777.253859459,16777.311361084,16777.9131165,16779.406509667,0,0.708592958999361
102,43,13,categorization,0,bathroom,SHINEd_sun_aspsyogrekjtfozg.tif,50,0.0666666666666667,0.0666666666666667,0.866666666666667,16779.424587709,16780.100210375,13,16779.4913905,16779.55747875,16780.130810209,16780.990818542,1,0.675622665999981
102,44,13,categorization,0,kitchen,SHINEd_sun_acwjdupvyjsugpay.tif,76,0.0666666666666667,0.0666666666666667,0.933333333333333,16780.996817209,16781.63995375,9,16781.058595625,16781.119567667,16781.6549135,16782.581586459,1,0.643136540998967
102,45,13,categorization,0,bathroom,SHINEd_sun_aljolscmmzydegqp.tif,33,0.0666666666666667,0.0666666666666667,1.55,16782.586742542,16783.4391045,13,16782.648811542,16782.709480875,16783.444751834,16784.988133542,1,0.852361958000984
102,46,13,categorization,0,bathroom,SHINEd_sun_ahqjwnzgolcaoidx.tif,29,0.0666666666666667,0.0666666666666667,1.3,16784.998135209,16785.803123459,9,16785.063296292,16785.129529042,16785.817630792,16787.111022209,0,0.80498825000177
102,47,13,categorization,0,kitchen,SHINEd_sun_azmutvzbxypaceni.tif,110,0.0666666666666667,0.0666666666666667,1.78333333333333,16787.123371709,16789.0235005,9,16787.1904475,16787.256303375,16789.043199917,16790.81991375,1,1.90012879099959
102,48,13,categorization,0,bathroom,SHINEd_sun_ahaulkltgpkeeemi.tif,26,0.0666666666666667,0.0666666666666667,1.8,16790.839344459,16791.56241775,13,16790.906286584,16790.972368042,16791.578458334,16793.37184975,1,0.723073290999309
102,49,13,categorization,0,bathroom,SHINEd_sun_ajlawzvmubibwbpy.tif,30,0.0666666666666667,0.0666666666666667,0.816666666666667,16793.390389459,16794.613197417,9,16793.458467417,16793.5234445,16794.630542209,16795.44054825,0,1.22280795799816
102,50,13,categorization,0,bathroom,SHINEd_sun_awnqiikzaispgmwo.tif,56,0.0666666666666667,0.0666666666666667,0.966666666666667,16795.446648584,16796.232006167,13,16795.508355417,16795.569465,16796.238009959,16797.198017334,1,0.785357583001314
