sub_num,trial,block,task,is_practice,category,image,texture,duration,mask_dur,jitter,stim_time,time_of_resp,trial_response,mask_time,fix_time,jit_onset,trial_end,trial_accuracy,RT
102,1,4,categorization,0,bathroom,SHINEd_sun_agyqfjcfkdcydepw.tif,25,0.0833333333333333,0.0666666666666667,1,2869.840778541,NaN,NaN,2869.919933333,NaN,NaN,NaN,NaN,NaN
102,2,4,categorization,0,bathroom,SHINEd_sun_axldvoqbuvuggfmq.tif,57,0.0833333333333333,0.0666666666666667,0.966666666666667,NaN,NaN,NaN,NaN,NaN,NaN,NaN,NaN,NaN
102,3,4,categorization,0,kitchen,SHINEd_sun_ahspylgoovwmwvgk.tif,93,0.0833333333333333,0.0666666666666667,1.75,NaN,NaN,NaN,NaN,NaN,NaN,NaN,NaN,NaN
102,4,4,categorization,0,bathroom,SHINEd_sun_anhioqovhscjqqwb.tif,38,0.0833333333333333,0.0666666666666667,1.68333333333333,NaN,NaN,NaN,NaN,NaN,NaN,NaN,NaN,NaN
102,5,4,categorization,0,kitchen,SHINEd_sun_abdenxonkemggwsq.tif,69,0.0833333333333333,0.0666666666666667,1.58333333333333,NaN,NaN,NaN,NaN,NaN,NaN,NaN,NaN,NaN
102,6,4,categorization,0,kitchen,SHINEd_sun_acxkpeoqbwcxfvip.tif,77,0.0833333333333333,0.0666666666666667,1,NaN,NaN,NaN,NaN,NaN,NaN,NaN,NaN,NaN
102,7,4,categorization,0,kitchen,SHINEd_sun_acfmftudsenhrfhy.tif,74,0.0833333333333333,0.0666666666666667,1.33333333333333,NaN,NaN,NaN,NaN,NaN,NaN,NaN,NaN,NaN
102,8,4,categorization,0,kitchen,SHINEd_sun_ajcbwwvdlsvjyzje.tif,96,0.0833333333333333,0.0666666666666667,1.26666666666667,NaN,NaN,NaN,NaN,NaN,NaN,NaN,NaN,NaN
102,9,4,categorization,0,bathroom,SHINEd_sun_aleqenyvunhactkl.tif,32,0.0833333333333333,0.0666666666666667,0.883333333333333,NaN,NaN,NaN,NaN,NaN,NaN,NaN,NaN,NaN
102,10,4,categorization,0,bathroom,SHINEd_sun_apjevzvycyhuqghb.tif,43,0.0833333333333333,0.0666666666666667,1.26666666666667,NaN,NaN,NaN,NaN,NaN,NaN,NaN,NaN,NaN
102,11,4,categorization,0,kitchen,SHINEd_sun_abpwyqmlzafvklqo.tif,72,0.0833333333333333,0.0666666666666667,2,NaN,NaN,NaN,NaN,NaN,NaN,NaN,NaN,NaN
102,12,4,categorization,0,bathroom,SHINEd_sun_aunuadmjocsddsrl.tif,52,0.0833333333333333,0.0666666666666667,0.733333333333333,NaN,NaN,NaN,NaN,NaN,NaN,NaN,NaN,NaN
102,13,4,categorization,0,bathroom,SHINEd_sun_aghyqhbptboemmoq.tif,23,0.0833333333333333,0.0666666666666667,0.883333333333333,NaN,NaN,NaN,NaN,NaN,NaN,NaN,NaN,NaN
102,14,4,categorization,0,bathroom,SHINEd_sun_aapitsgbtktqubfy.tif,12,0.0833333333333333,0.0666666666666667,0.983333333333333,NaN,NaN,NaN,NaN,NaN,NaN,NaN,NaN,NaN
102,15,4,categorization,0,kitchen,SHINEd_sun_ahljzhgcdpomplvg.tif,91,0.0833333333333333,0.0666666666666667,1.56666666666667,NaN,NaN,NaN,NaN,NaN,NaN,NaN,NaN,NaN
102,16,4,categorization,0,bathroom,SHINEd_sun_atstyziqcmkahyxk.tif,51,0.0833333333333333,0.0666666666666667,1.08333333333333,NaN,NaN,NaN,NaN,NaN,NaN,NaN,NaN,NaN
102,17,4,categorization,0,kitchen,SHINEd_sun_aggjlwcdjsjcaemh.tif,86,0.0833333333333333,0.0666666666666667,0.75,NaN,NaN,NaN,NaN,NaN,NaN,NaN,NaN,NaN
102,18,4,categorization,0,bathroom,SHINEd_sun_aoybiabnpadelefl.tif,41,0.0833333333333333,0.0666666666666667,0.966666666666667,NaN,NaN,NaN,NaN,NaN,NaN,NaN,NaN,NaN
102,19,4,categorization,0,bathroom,SHINEd_sun_ahijqszoswveeyji.tif,28,0.0833333333333333,0.0666666666666667,1.63333333333333,NaN,NaN,NaN,NaN,NaN,NaN,NaN,NaN,NaN
102,20,4,categorization,0,bathroom,SHINEd_sun_ambriybtogmepttm.tif,36,0.0833333333333333,0.0666666666666667,1.46666666666667,NaN,NaN,NaN,NaN,NaN,NaN,NaN,NaN,NaN
102,21,4,categorization,0,kitchen,SHINEd_sun_aeqdocilnnpuvuhx.tif,83,0.0833333333333333,0.0666666666666667,0.933333333333333,NaN,NaN,NaN,NaN,NaN,NaN,NaN,NaN,NaN
102,22,4,categorization,0,kitchen,SHINEd_sun_abdxkyyxwfskuaqb.tif,70,0.0833333333333333,0.0666666666666667,1.45,NaN,NaN,NaN,NaN,NaN,NaN,NaN,NaN,NaN
102,23,4,categorization,0,kitchen,SHINEd_labelme_kxvouciolcpqplr.tif,62,0.0833333333333333,0.0666666666666667,0.966666666666667,NaN,NaN,NaN,NaN,NaN,NaN,NaN,NaN,NaN
102,24,4,categorization,0,bathroom,SHINEd_sun_afcoljnjfoxjtgja.tif,20,0.0833333333333333,0.0666666666666667,0.816666666666667,NaN,NaN,NaN,NaN,NaN,NaN,NaN,NaN,NaN
102,25,4,categorization,0,bathroom,SHINEd_sun_alkosphxlxwjwgjd.tif,34,0.0833333333333333,0.0666666666666667,1.96666666666667,NaN,NaN,NaN,NaN,NaN,NaN,NaN,NaN,NaN
102,26,4,categorization,0,kitchen,SHINEd_sun_aenotlpyftoioydp.tif,82,0.0833333333333333,0.0666666666666667,0.916666666666667,NaN,NaN,NaN,NaN,NaN,NaN,NaN,NaN,NaN
102,27,4,categorization,0,bathroom,SHINEd_sun_alotolagknyrgtsk.tif,35,0.0833333333333333,0.0666666666666667,1.28333333333333,NaN,NaN,NaN,NaN,NaN,NaN,NaN,NaN,NaN
102,28,4,categorization,0,bathroom,SHINEd_sun_aspsyogrekjtfozg.tif,50,0.0833333333333333,0.0666666666666667,1.8,NaN,NaN,NaN,NaN,NaN,NaN,NaN,NaN,NaN
102,29,4,categorization,0,kitchen,SHINEd_sun_aexklacwqwezaorf.tif,84,0.0833333333333333,0.0666666666666667,1.33333333333333,NaN,NaN,NaN,NaN,NaN,NaN,NaN,NaN,NaN
102,30,4,categorization,0,bathroom,SHINEd_sun_akiytfaagpdsphgz.tif,31,0.0833333333333333,0.0666666666666667,1.06666666666667,NaN,NaN,NaN,NaN,NaN,NaN,NaN,NaN,NaN
102,31,4,categorization,0,bathroom,SHINEd_sun_aggnnqpdorgxpvce.tif,21,0.0833333333333333,0.0666666666666667,1.03333333333333,NaN,NaN,NaN,NaN,NaN,NaN,NaN,NaN,NaN
102,32,4,categorization,0,kitchen,SHINEd_sun_ahywdevtimnqcsln.tif,94,0.0833333333333333,0.0666666666666667,0.733333333333333,NaN,NaN,NaN,NaN,NaN,NaN,NaN,NaN,NaN
102,33,4,categorization,0,kitchen,SHINEd_sun_afuyedyxivkhecmu.tif,85,0.0833333333333333,0.0666666666666667,0.766666666666667,NaN,NaN,NaN,NaN,NaN,NaN,NaN,NaN,NaN
102,34,4,categorization,0,bathroom,SHINEd_sun_aofnryafpsjimzsb.tif,40,0.0833333333333333,0.0666666666666667,1.1,NaN,NaN,NaN,NaN,NaN,NaN,NaN,NaN,NaN
102,35,4,categorization,0,kitchen,SHINEd_sun_aixorpehvfykdynp.tif,95,0.0833333333333333,0.0666666666666667,1.81666666666667,NaN,NaN,NaN,NaN,NaN,NaN,NaN,NaN,NaN
102,36,4,categorization,0,kitchen,SHINEd_sun_aaxxjlsuzvqlgylf.tif,68,0.0833333333333333,0.0666666666666667,0.883333333333333,NaN,NaN,NaN,NaN,NaN,NaN,NaN,NaN,NaN
102,37,4,categorization,0,kitchen,SHINEd_sun_ajkqhtgcbgpcwrwn.tif,97,0.0833333333333333,0.0666666666666667,1.7,NaN,NaN,NaN,NaN,NaN,NaN,NaN,NaN,NaN
102,38,4,categorization,0,bathroom,SHINEd_sun_aclfzgynxzxlbepz.tif,19,0.0833333333333333,0.0666666666666667,1.58333333333333,NaN,NaN,NaN,NaN,NaN,NaN,NaN,NaN,NaN
102,39,4,categorization,0,bathroom,SHINEd_sun_azqyogdvyhahyram.tif,60,0.0833333333333333,0.0666666666666667,0.833333333333333,NaN,NaN,NaN,NaN,NaN,NaN,NaN,NaN,NaN
102,40,4,categorization,0,kitchen,SHINEd_sun_avszsnwsbuqfgzbn.tif,105,0.0833333333333333,0.0666666666666667,0.95,NaN,NaN,NaN,NaN,NaN,NaN,NaN,NaN,NaN
102,41,4,categorization,0,bathroom,SHINEd_sun_apeeialkgkuxddgh.tif,42,0.0833333333333333,0.0666666666666667,1.06666666666667,NaN,NaN,NaN,NaN,NaN,NaN,NaN,NaN,NaN
102,42,4,categorization,0,bathroom,SHINEd_sun_abapwbhyhkfixyex.tif,14,0.0833333333333333,0.0666666666666667,1.68333333333333,NaN,NaN,NaN,NaN,NaN,NaN,NaN,NaN,NaN
102,43,4,categorization,0,kitchen,SHINEd_sun_akchetnepxlcxhsu.tif,98,0.0833333333333333,0.0666666666666667,1.31666666666667,NaN,NaN,NaN,NaN,NaN,NaN,NaN,NaN,NaN
102,44,4,categorization,0,kitchen,SHINEd_labelme_brsyyvweiuaazfr.tif,61,0.0833333333333333,0.0666666666666667,1.61666666666667,NaN,NaN,NaN,NaN,NaN,NaN,NaN,NaN,NaN
102,45,4,categorization,0,kitchen,SHINEd_sun_acwjdupvyjsugpay.tif,76,0.0833333333333333,0.0666666666666667,1.15,NaN,NaN,NaN,NaN,NaN,NaN,NaN,NaN,NaN
102,46,4,categorization,0,kitchen,SHINEd_sun_aamedkxepzlwuxes.tif,65,0.0833333333333333,0.0666666666666667,1.25,NaN,NaN,NaN,NaN,NaN,NaN,NaN,NaN,NaN
102,47,4,categorization,0,kitchen,SHINEd_sun_amjjdeyrggfqgmom.tif,100,0.0833333333333333,0.0666666666666667,1.1,NaN,NaN,NaN,NaN,NaN,NaN,NaN,NaN,NaN
102,48,4,categorization,0,bathroom,SHINEd_sun_apkruvsevgegsdwp.tif,44,0.0833333333333333,0.0666666666666667,0.9,NaN,NaN,NaN,NaN,NaN,NaN,NaN,NaN,NaN
102,49,4,categorization,0,bathroom,SHINEd_sun_ajlawzvmubibwbpy.tif,30,0.0833333333333333,0.0666666666666667,1.3,NaN,NaN,NaN,NaN,NaN,NaN,NaN,NaN,NaN
102,50,4,categorization,0,kitchen,SHINEd_sun_aapllqyqlykszopd.tif,66,0.0833333333333333,0.0666666666666667,1.25,NaN,NaN,NaN,NaN,NaN,NaN,NaN,NaN,NaN
