sub_num,trial,block,task,is_practice,category,image,texture,duration,mask_dur,jitter,stim_time,time_of_resp,trial_response,mask_time,fix_time,jit_onset,trial_end,trial_accuracy,RT
102,1,3,categorization,0,bathroom,SHINEd_sun_awnqiikzaispgmwo.tif,56,0.0833333333333333,0.0666666666666667,0.85,2761.4642885,2762.127618416,13,2761.543500125,2761.60389875,2762.139168291,2762.982505416,NaN,NaN
102,2,3,categorization,0,kitchen,SHINEd_sun_agorklincwxrdtga.tif,87,0.0833333333333333,0.0666666666666667,1.65,2762.987380208,2763.559749541,13,2763.065870291,2763.12698075,2763.578889666,2765.222256833,NaN,NaN
102,3,3,categorization,0,bathroom,SHINEd_sun_ahqjwnzgolcaoidx.tif,29,0.0833333333333333,0.0666666666666667,0.783333333333333,2765.239809958,2765.909490625,13,2765.322392625,2765.389763375,2765.92944925,2766.706122125,NaN,NaN
102,4,3,categorization,0,kitchen,SHINEd_labelme_rykdqxenmhulbdn.tif,63,0.0833333333333333,0.0666666666666667,0.933333333333333,2766.712016333,2767.408190791,9,2766.790401416,2766.851686,2767.420256875,2768.346927833,NaN,NaN
102,5,3,categorization,0,kitchen,SHINEd_sun_acgtpgfybqjmzeyw.tif,75,0.0833333333333333,0.0666666666666667,0.866666666666667,2768.352570583,2769.008130708,9,2768.430986958,2768.492152708,2769.027124833,2769.887130666,NaN,NaN
102,6,3,categorization,0,kitchen,SHINEd_sun_agubuxuukhzyzpdp.tif,88,0.0833333333333333,0.0666666666666667,1.11666666666667,2769.892029,2770.631600041,9,2769.970346375,2770.031553,2770.650011625,2771.760061916,NaN,NaN
102,7,3,categorization,0,bathroom,SHINEd_sun_ahaulkltgpkeeemi.tif,26,0.0833333333333333,0.0666666666666667,0.966666666666667,2771.772004375,2772.579262125,13,2771.853262625,2771.9222365,2772.594643666,2773.554675458,NaN,NaN
102,8,3,categorization,0,bathroom,SHINEd_sun_agrwbmhcpmfuwmsg.tif,24,0.0833333333333333,0.0666666666666667,1.78333333333333,2773.570967666,2774.296333708,13,2773.654306583,2773.712572208,2774.314645541,2776.091354083,NaN,NaN
102,9,3,categorization,0,bathroom,SHINEd_sun_aavhrsfjbserjtht.tif,13,0.0833333333333333,0.0666666666666667,1.55,2776.106206375,2776.804744916,13,2776.189791041,2776.256522416,2776.829655583,2778.373026,NaN,NaN
102,10,3,categorization,0,kitchen,SHINEd_sun_aypmqwcualkenuoe.tif,109,0.0833333333333333,0.0666666666666667,1.41666666666667,2778.39173125,2779.108488958,9,2778.475056541,2778.542473208,2779.1324005,2780.542452416,NaN,NaN
102,11,3,categorization,0,kitchen,SHINEd_sun_abftihopvusyfakt.tif,71,0.0833333333333333,0.0666666666666667,0.8,2780.55829575,2781.176724958,9,2780.640998583,2780.710148583,2781.200075833,2781.993467166,NaN,NaN
102,12,3,categorization,0,kitchen,SHINEd_sun_aadbddgrdsjugojn.tif,64,0.0833333333333333,0.0666666666666667,1.28333333333333,2782.010228958,2782.6478415,9,2782.093664583,2782.160751291,2782.662640041,2783.939339416,NaN,NaN
102,13,3,categorization,0,kitchen,SHINEd_sun_aegoxogugdkwpmpj.tif,80,0.0833333333333333,0.0666666666666667,1.66666666666667,2783.956751541,2784.567937958,9,2784.040232833,2784.106881541,2784.596771666,2786.256827583,NaN,NaN
102,14,3,categorization,0,kitchen,SHINEd_sun_adgqasybjyktddhj.tif,78,0.0833333333333333,0.0666666666666667,1.81666666666667,2786.273698,2786.904208958,9,2786.357045125,2786.424226125,2786.930956416,2788.741009,NaN,NaN
102,15,3,categorization,0,bathroom,SHINEd_sun_auzqhkafidnkrwmo.tif,54,0.0833333333333333,0.0666666666666667,1.35,2788.758341833,2789.411258458,9,2788.842322583,2788.908664791,2789.431687958,2790.77505875,NaN,NaN
102,16,3,categorization,0,bathroom,SHINEd_sun_axxbkopsgyouuebh.tif,58,0.0833333333333333,0.0666666666666667,0.916666666666667,2790.793327916,2791.460004833,13,2790.876649458,2790.943498458,2791.483468125,2792.393504333,NaN,NaN
102,17,3,categorization,0,bathroom,SHINEd_sun_acgyywnybuveqsro.tif,18,0.0833333333333333,0.0666666666666667,0.916666666666667,2792.4068475,2793.071783,13,2792.490526041,2792.555104416,2793.090241791,2794.0002465,NaN,NaN
102,18,3,categorization,0,kitchen,SHINEd_sun_aunzlwrbjumxhwdj.tif,103,0.0833333333333333,0.0666666666666667,1.31666666666667,2794.005075041,2794.623380291,9,2794.08352075,2794.14473475,2794.629785208,2795.939838583,NaN,NaN
102,19,3,categorization,0,bathroom,SHINEd_sun_acegryoqftbzowsg.tif,17,0.0833333333333333,0.0666666666666667,1.45,2795.95675325,2797.272414583,13,2796.039986791,2796.107053666,2797.297525,2798.740912791,NaN,NaN
102,20,3,categorization,0,bathroom,SHINEd_sun_aljolscmmzydegqp.tif,33,0.0833333333333333,0.0666666666666667,0.95,2798.759001791,2799.735751708,13,2798.84252325,2798.909324375,2799.765386458,2800.70872375,NaN,NaN
102,21,3,categorization,0,kitchen,SHINEd_sun_abrcnpqqhmjwekyf.tif,73,0.0833333333333333,0.0666666666666667,1.38333333333333,2800.714106583,2801.903163166,9,2800.79251525,2800.853566958,2801.922393875,2803.299104958,NaN,NaN
102,22,3,categorization,0,bathroom,SHINEd_sun_ahcvzmoyaycdoftf.tif,27,0.0833333333333333,0.0666666666666667,1.16666666666667,2803.312213041,2803.938135625,13,2803.395718291,2803.462477583,2803.969072791,2805.129113083,NaN,NaN
102,23,3,categorization,0,kitchen,SHINEd_sun_aymvwlarqodbwuoc.tif,108,0.0833333333333333,0.0666666666666667,1.61666666666667,2805.14658675,2806.261977541,13,2805.229831625,2805.297503333,2806.286957541,2807.8970055,NaN,NaN
102,24,3,categorization,0,bathroom,SHINEd_sun_agguqiubmwhqqunb.tif,22,0.0833333333333333,0.0666666666666667,1.38333333333333,2807.914451458,2809.001892458,13,2807.997946958,2808.064803041,2809.02090225,2810.397602583,NaN,NaN
102,25,3,categorization,0,kitchen,SHINEd_sun_akcjzhbbjlbogpdi.tif,99,0.0833333333333333,0.0666666666666667,1.78333333333333,2810.409984333,2811.054273458,9,2810.492859625,2810.560466333,2811.083905625,2812.86061725,NaN,NaN
102,26,3,categorization,0,kitchen,SHINEd_sun_admlmbcdswaszruo.tif,79,0.0833333333333333,0.0666666666666667,0.783333333333333,2812.873862,2813.490883208,9,2812.957430833,2813.024406708,2813.514786291,2814.291457041,NaN,NaN
102,27,3,categorization,0,kitchen,SHINEd_sun_aehawpgmrlhlvcow.tif,81,0.0833333333333333,0.0666666666666667,1.65,2814.297318208,2814.999136916,9,2814.37604675,2814.436954791,2815.0056135,2816.648996083,NaN,NaN
102,28,3,categorization,0,kitchen,SHINEd_sun_ahpczsiumwwocjkv.tif,92,0.0833333333333333,0.0666666666666667,1.86666666666667,2816.666786958,2817.3408315,9,2816.749754458,2816.817262083,2817.356560708,2819.216609916,NaN,NaN
102,29,3,categorization,0,kitchen,SHINEd_sun_awcpdzzznmweyyhv.tif,106,0.0833333333333333,0.0666666666666667,1.23333333333333,2819.234891625,2819.950120583,9,2819.318580791,2819.385218,2819.974631458,2821.201337625,NaN,NaN
102,30,3,categorization,0,bathroom,SHINEd_sun_acduarbnmmoglmiv.tif,16,0.0833333333333333,0.0666666666666667,0.7,2821.217969625,2821.990792666,13,2821.301945375,2821.368359166,2822.007542291,2822.700925625,NaN,NaN
102,31,3,categorization,0,kitchen,SHINEd_sun_auaiucuqpdausiva.tif,102,0.0833333333333333,0.0666666666666667,0.716666666666667,2822.715361958,2823.695747875,9,2822.798405541,2822.865693166,2823.701612208,2824.41161675,NaN,NaN
102,32,3,categorization,0,kitchen,SHINEd_sun_agzzivivdpnawacl.tif,89,0.0833333333333333,0.0666666666666667,1.05,2824.416603875,2825.279434708,9,2824.495098083,2824.556321083,2825.291618333,2826.334994666,NaN,NaN
102,33,3,categorization,0,bathroom,SHINEd_labelme_sfxiulhjbhlyiyt.tif,11,0.0833333333333333,0.0666666666666667,1.1,2826.344995041,2827.003186291,13,2826.426637666,2826.4938215,2827.015574333,2828.10894725,NaN,NaN
102,34,3,categorization,0,bathroom,SHINEd_sun_apynckhmoftszqoq.tif,47,0.0833333333333333,0.0666666666666667,1.13333333333333,2828.125867083,2828.77612625,13,2828.209327166,2828.27621675,2828.794964541,2829.921666083,NaN,NaN
102,35,3,categorization,0,kitchen,SHINEd_sun_azmutvzbxypaceni.tif,110,0.0833333333333333,0.0666666666666667,1.38333333333333,2829.931752958,2830.58104875,9,2830.015186125,2830.081933208,2830.605513791,2831.982230958,NaN,NaN
102,36,3,categorization,0,kitchen,SHINEd_sun_aqeaevwwwjoqhzvl.tif,101,0.0833333333333333,0.0666666666666667,1.5,2831.992856875,2832.66767325,9,2832.076033541,2832.143345625,2832.682171583,2834.175553375,NaN,NaN
102,37,3,categorization,0,bathroom,SHINEd_sun_apmqjbnwghzuhhzh.tif,46,0.0833333333333333,0.0666666666666667,1.61666666666667,2834.189856208,2834.75141125,13,2834.273278625,2834.339777083,2834.779964458,2836.390003041,NaN,NaN
102,38,3,categorization,0,kitchen,SHINEd_sun_axyyrmzcupyhlivc.tif,107,0.0833333333333333,0.0666666666666667,0.983333333333333,2836.40810575,2837.586791875,13,2836.491425333,2836.558669833,2837.615050166,2838.591722458,NaN,NaN
102,39,3,categorization,0,bathroom,SHINEd_sun_apkxzenqapsujocq.tif,45,0.0833333333333333,0.0666666666666667,1.3,2838.597281958,2839.183176791,13,2838.675696291,2838.737190541,2839.189024875,2840.482401333,NaN,NaN
102,40,3,categorization,0,bathroom,SHINEd_sun_asfwthctfqerjvxr.tif,49,0.0833333333333333,0.0666666666666667,1.03333333333333,2840.500023,2841.201841166,13,2840.583189458,2840.65050625,2841.223146458,2842.249818958,NaN,NaN
102,41,3,categorization,0,bathroom,SHINEd_sun_anryaplzeujmzfkd.tif,39,0.0833333333333333,0.0666666666666667,1.45,2842.255654375,2842.895436583,13,2842.334018333,2842.395274291,2842.913833166,2844.357206083,NaN,NaN
102,42,3,categorization,0,bathroom,SHINEd_sun_ausgutylgojavyoq.tif,53,0.0833333333333333,0.0666666666666667,1.23333333333333,2844.371719833,2844.981328541,13,2844.4554835,2844.521956208,2845.012175958,2846.238889,NaN,NaN
102,43,3,categorization,0,bathroom,SHINEd_sun_axyrejkiiaqiurjk.tif,59,0.0833333333333333,0.0666666666666667,1.26666666666667,2846.255990625,2847.206631708,13,2846.33868675,2846.406375083,2847.229375666,2848.489405833,NaN,NaN
102,44,3,categorization,0,bathroom,SHINEd_sun_abjtwfukuwddzted.tif,15,0.0833333333333333,0.0666666666666667,1.03333333333333,2848.506181583,2849.007955125,13,2848.58957925,2848.656843875,2849.02996025,2850.056678083,NaN,NaN
102,45,3,categorization,0,kitchen,SHINEd_sun_aarfiyshqohlwkmo.tif,67,0.0833333333333333,0.0666666666666667,1.31666666666667,2850.069104708,2850.703466916,9,2850.152518958,2850.219527875,2850.721396333,2852.031436083,NaN,NaN
102,46,3,categorization,0,bathroom,SHINEd_sun_amzlamotzwfkwjco.tif,37,0.0833333333333333,0.0666666666666667,1.7,2852.050170083,2852.864363791,13,2852.133280625,2852.200395291,2852.890474166,2854.583848791,NaN,NaN
102,47,3,categorization,0,kitchen,SHINEd_sun_ahdycvpopffkzzsu.tif,90,0.0833333333333333,0.0666666666666667,1.35,2854.60123975,2855.64810175,13,2854.6842115,2854.751501791,2855.67612675,2857.019501041,NaN,NaN
102,48,3,categorization,0,bathroom,SHINEd_sun_aqrpegblszgcoujh.tif,48,0.0833333333333333,0.0666666666666667,0.8,2857.035734541,2857.666932541,13,2857.119845708,2857.186752291,2857.694787583,2858.488164166,NaN,NaN
102,49,3,categorization,0,kitchen,SHINEd_sun_auticobqsbwgoppi.tif,104,0.0833333333333333,0.0666666666666667,0.766666666666667,2858.506959791,2859.271575125,9,2858.591042833,2858.658658625,2859.277971541,2860.037976708,NaN,NaN
102,50,3,categorization,0,bathroom,SHINEd_sun_avhrdrntsqrjzccq.tif,55,0.0833333333333333,0.0666666666666667,1.38333333333333,2860.042949916,2860.855933541,13,2860.121405666,2860.182577916,2860.867703541,2862.244409833,NaN,NaN
