sub_num,trial,block,task,is_practice,category,image,texture,duration,mask_dur,jitter,stim_time,time_of_resp,trial_response,mask_time,fix_time,jit_onset,trial_end,trial_accuracy,RT
102,1,0,categorization,1,kitchen,SHINEd_kitchen_practice4.tif,119,0.0666666666666667,0.0666666666666667,1.21666666666667,15165.514272,15168.97271025,9,15165.580580542,15165.640182792,15169.010841459,15170.221101167,1,3.45843824999974
102,2,0,categorization,1,kitchen,SHINEd_kitchen_practice3.tif,118,0.0666666666666667,0.0666666666666667,1.36666666666667,15170.275168625,15171.530602209,13,15170.345195292,15170.409995417,15171.573043167,15172.933267917,0,1.25543358400137
102,3,0,categorization,1,bathroom,SHINEd_bathroom_practice1.tif,111,0.0666666666666667,0.0666666666666667,1.85,15172.986533667,15173.435179167,9,15173.061553917,15173.121672584,15173.465225584,15175.308778,0,0.448645500000566
102,4,0,categorization,1,kitchen,SHINEd_kitchen_practice1.tif,116,0.0666666666666667,0.0666666666666667,1.55,15175.338477084,15176.038167209,13,15175.408452375,15175.472520667,15176.065781875,15177.609358625,0,0.699690125000416
102,5,0,categorization,1,bathroom,SHINEd_bathroom_practice4.tif,114,0.0666666666666667,0.0666666666666667,1.48333333333333,15177.644110709,15178.625827167,13,15177.717651084,15177.778698292,15178.655009042,15180.13267925,1,0.981716457999937
102,6,0,categorization,1,bathroom,SHINEd_bathroom_practice5.tif,115,0.0666666666666667,0.0666666666666667,1.15,15180.156003042,15181.659130875,13,15180.225353834,15180.288725667,15181.682704667,15182.826206209,1,1.50312783299887
102,7,0,categorization,1,kitchen,SHINEd_kitchen_practice2.tif,117,0.0666666666666667,0.0666666666666667,0.733333333333333,15182.836953917,15183.663108084,9,15182.904921084,15182.9709235,15183.676358459,15184.403086542,1,0.826154166999913
102,8,0,categorization,1,kitchen,SHINEd_kitchen_practice5.tif,120,0.0666666666666667,0.0666666666666667,1.6,15184.422294084,15185.36631825,13,15184.488941209,15184.55612625,15185.375529625,15186.968901709,0,0.944024165999508
102,9,0,categorization,1,bathroom,SHINEd_bathroom_practice3.tif,113,0.0666666666666667,0.0666666666666667,0.716666666666667,15186.993307292,15187.9997965,13,15187.06026025,15187.126810375,15188.016684875,15188.72668975,1,1.00648920800086
102,10,0,categorization,1,bathroom,SHINEd_bathroom_practice2.tif,112,0.0666666666666667,0.0666666666666667,1.21666666666667,15188.732556667,15189.790775167,13,15188.794354959,15188.855485,15189.807775917,15191.017826125,1,1.05821850000029
102,1,0,categorization,1,kitchen,SHINEd_kitchen_practice4.tif,119,0.0666666666666667,0.0666666666666667,1.21666666666667,15207.38090125,15209.150392834,9,15207.443577084,15207.503942125,15209.156357167,15210.366415459,1,1.76949158400021
102,2,0,categorization,1,kitchen,SHINEd_kitchen_practice3.tif,118,0.0666666666666667,0.0666666666666667,1.36666666666667,15210.377162542,15212.582541875,13,15210.445332334,15210.510119584,15212.596282625,15213.956320459,0,2.20537933299966
102,3,0,categorization,1,bathroom,SHINEd_bathroom_practice1.tif,111,0.0666666666666667,0.0666666666666667,1.85,15213.9769805,15214.919670584,13,15214.043696459,15214.110109709,15214.950368584,15216.793752667,1,0.942690084000787
102,4,0,categorization,1,kitchen,SHINEd_kitchen_practice1.tif,116,0.0666666666666667,0.0666666666666667,1.55,15216.809762459,15217.677779125,9,15216.876057459,15216.942691167,15217.698595084,15219.241976625,1,0.868016666001495
102,5,0,categorization,1,bathroom,SHINEd_bathroom_practice4.tif,114,0.0666666666666667,0.0666666666666667,1.48333333333333,15219.25997075,15220.157148584,13,15219.32704025,15219.392524917,15220.182646959,15221.659354792,1,0.897177834000104
102,6,0,categorization,1,bathroom,SHINEd_bathroom_practice5.tif,115,0.0666666666666667,0.0666666666666667,1.15,15221.674838125,15222.488330792,9,15221.741744584,15221.807938542,15222.514665167,15223.658058792,0,0.813492667000901
102,7,0,categorization,1,kitchen,SHINEd_kitchen_practice2.tif,117,0.0666666666666667,0.0666666666666667,0.733333333333333,15223.66841725,15224.463998584,9,15223.734226125,15223.801326167,15224.491446167,15225.218165875,1,0.795581333999507
102,8,0,categorization,1,kitchen,SHINEd_kitchen_practice5.tif,120,0.0666666666666667,0.0666666666666667,1.6,15225.23417525,15226.093577125,9,15225.301139167,15225.367042,15226.102988417,15227.696364042,1,0.859401875000913
102,9,0,categorization,1,bathroom,SHINEd_bathroom_practice3.tif,113,0.0666666666666667,0.0666666666666667,0.716666666666667,15227.714777834,15228.485792542,13,15227.781682459,15227.847626834,15228.503944125,15229.2139505,1,0.771014707999711
102,10,0,categorization,1,bathroom,SHINEd_bathroom_practice2.tif,112,0.0666666666666667,0.0666666666666667,1.21666666666667,15229.219871375,15230.405888209,13,15229.281752792,15229.342543375,15230.411115667,15231.621163959,1,1.18601683399902
102,1,1,categorization,0,kitchen,SHINEd_sun_aegoxogugdkwpmpj.tif,80,0.0666666666666667,0.0666666666666667,1.23333333333333,15246.078946084,15248.046224834,9,15246.141304584,15246.201828834,15248.054334334,15249.2810595,1,1.96727875000033
102,2,1,categorization,0,bathroom,SHINEd_sun_aleqenyvunhactkl.tif,32,0.0666666666666667,0.0666666666666667,0.783333333333333,15249.298033084,15250.826136,9,15249.366448459,15249.431147625,15250.857971625,15251.634642667,0,1.52810291599963
102,3,1,categorization,0,kitchen,SHINEd_sun_aggjlwcdjsjcaemh.tif,86,0.0666666666666667,0.0666666666666667,0.75,15251.64093225,15252.469386042,9,15251.702732584,15251.763578917,15252.4821075,15253.225446042,1,0.828453791998982
102,4,1,categorization,0,bathroom,SHINEd_sun_aqrpegblszgcoujh.tif,48,0.0666666666666667,0.0666666666666667,1.23333333333333,15253.230234459,15254.053694125,9,15253.29205825,15253.352936125,15254.071663625,15255.298391375,0,0.823459665998598
102,5,1,categorization,0,kitchen,SHINEd_sun_auaiucuqpdausiva.tif,102,0.0666666666666667,0.0666666666666667,1.13333333333333,15255.3143075,15256.004950209,13,15255.381214292,15255.447380417,15256.019770292,15257.146488292,0,0.690642708999803
102,6,1,categorization,0,kitchen,SHINEd_sun_aadbddgrdsjugojn.tif,64,0.0666666666666667,0.0666666666666667,0.95,15257.165219875,15258.127791292,9,15257.231781084,15257.298096917,15258.154647542,15259.098027292,1,0.962571416999708
102,7,1,categorization,0,kitchen,SHINEd_sun_aunzlwrbjumxhwdj.tif,103,0.0666666666666667,0.0666666666666667,0.733333333333333,15259.115370084,15259.877282334,13,15259.178273125,15259.238029042,15259.889829334,15260.616500042,0,0.761912250000023
102,8,1,categorization,0,bathroom,SHINEd_sun_ajlawzvmubibwbpy.tif,30,0.0666666666666667,0.0666666666666667,1.31666666666667,15260.621517,15262.173448667,9,15260.683383709,15260.74428875,15262.180104334,15263.490155584,0,1.55193166699974
102,9,1,categorization,0,bathroom,SHINEd_sun_ahqjwnzgolcaoidx.tif,29,0.0666666666666667,0.0666666666666667,0.8,15263.510015709,15264.234744167,13,15263.577049,15263.643350625,15264.248137459,15265.041526167,1,0.724728458000754
102,10,1,categorization,0,bathroom,SHINEd_sun_ausgutylgojavyoq.tif,53,0.0666666666666667,0.0666666666666667,0.716666666666667,15265.059030042,15265.93369025,9,15265.126111,15265.191840584,15265.944413917,15266.654419459,0,0.874660207999113
102,11,1,categorization,0,kitchen,SHINEd_sun_agubuxuukhzyzpdp.tif,88,0.0666666666666667,0.0666666666666667,0.916666666666667,15266.659290792,15267.606222,13,15266.72112525,15266.781919209,15267.6178535,15268.527858625,0,0.946931208000024
102,12,1,categorization,0,kitchen,SHINEd_sun_ahljzhgcdpomplvg.tif,91,0.0666666666666667,0.0666666666666667,0.95,15268.533003625,15269.789635084,9,15268.594694375,15268.655666542,15269.8083185,15270.751656875,1,1.25663145900035
102,13,1,categorization,0,bathroom,SHINEd_sun_acegryoqftbzowsg.tif,17,0.0666666666666667,0.0666666666666667,0.833333333333333,15270.757342125,15271.685560959,9,15270.81908625,15270.880003667,15271.698564042,15272.525234625,0,0.92821883400029
102,14,1,categorization,0,bathroom,SHINEd_sun_apkruvsevgegsdwp.tif,44,0.0666666666666667,0.0666666666666667,0.75,15272.530181042,15273.326186625,13,15272.591718542,15272.652895375,15273.338437417,15274.081776667,1,0.796005582998987
102,15,1,categorization,0,kitchen,SHINEd_sun_azmutvzbxypaceni.tif,110,0.0666666666666667,0.0666666666666667,1.53333333333333,15274.087498209,15275.245817042,9,15274.149168375,15274.210066834,15275.262260334,15276.788979792,1,1.1583188329987
102,16,1,categorization,0,kitchen,SHINEd_sun_amjjdeyrggfqgmom.tif,100,0.0666666666666667,0.0666666666666667,1.05,15276.803176209,15277.827939459,9,15276.871577875,15276.9359925,15277.842068334,15278.885452959,1,1.02476325000134
102,17,1,categorization,0,bathroom,SHINEd_sun_aghyqhbptboemmoq.tif,23,0.0666666666666667,0.0666666666666667,0.9,15278.899372625,15279.714142917,13,15278.964641125,15279.030987334,15279.737700875,15280.631084959,1,0.814770292001413
102,18,1,categorization,0,bathroom,SHINEd_sun_ambriybtogmepttm.tif,36,0.0666666666666667,0.0666666666666667,1.18333333333333,15280.643851167,15281.445871,9,15280.710647834,15280.775904375,15281.461492459,15282.638186125,0,0.802019832999576
102,19,1,categorization,0,kitchen,SHINEd_sun_abpwyqmlzafvklqo.tif,72,0.0666666666666667,0.0666666666666667,0.9,15282.647850625,15283.763669917,9,15282.714663917,15282.78027075,15283.787194542,15284.680532625,1,1.11581929199929
102,20,1,categorization,0,kitchen,SHINEd_sun_agorklincwxrdtga.tif,87,0.0666666666666667,0.0666666666666667,1.66666666666667,15284.686219667,15286.550131209,13,15284.748168875,15284.809286584,15286.561870959,15288.221907167,0,1.86391154199919
102,21,1,categorization,0,bathroom,SHINEd_sun_alotolagknyrgtsk.tif,35,0.0666666666666667,0.0666666666666667,1.13333333333333,15288.243440042,15289.2388935,9,15288.308393125,15288.376728125,15289.266759459,15290.393473792,0,0.995453457999247
102,22,1,categorization,0,bathroom,SHINEd_sun_ahijqszoswveeyji.tif,28,0.0666666666666667,0.0666666666666667,1.3,15290.402807417,15291.410471667,9,15290.467528709,15290.537195709,15291.426800375,15292.720189167,0,1.00766425000074
102,23,1,categorization,0,bathroom,SHINEd_sun_axyrejkiiaqiurjk.tif,59,0.0666666666666667,0.0666666666666667,1.93333333333333,15292.739462209,15293.552837459,9,15292.808559709,15292.872330292,15293.579409834,15295.506120084,0,0.813375249999808
102,24,1,categorization,0,kitchen,SHINEd_sun_aqeaevwwwjoqhzvl.tif,101,0.0666666666666667,0.0666666666666667,1,15295.52763825,15297.197612042,13,15295.59481375,15295.658857625,15297.211721209,15298.205059667,0,1.66997379200075
102,25,1,categorization,0,bathroom,SHINEd_sun_axldvoqbuvuggfmq.tif,57,0.0666666666666667,0.0666666666666667,0.883333333333333,15298.209955167,15299.077416667,9,15298.271681459,15298.332624,15299.084396,15299.961069084,0,0.86746149999999
102,26,1,categorization,0,bathroom,SHINEd_sun_aavhrsfjbserjtht.tif,13,0.0666666666666667,0.0666666666666667,1.95,15299.96667525,15300.813515584,9,15300.02834075,15300.089379625,15300.82461875,15302.767988542,0,0.846840333999353
102,27,1,categorization,0,kitchen,SHINEd_sun_ahywdevtimnqcsln.tif,94,0.0666666666666667,0.0666666666666667,1.25,15302.78598775,15304.813977625,13,15302.852688584,15302.919212375,15304.821852375,15306.065245417,0,2.02798987499955
102,28,1,categorization,0,kitchen,SHINEd_sun_acwjdupvyjsugpay.tif,76,0.0666666666666667,0.0666666666666667,1.95,15306.078089375,15306.824025959,9,15306.145336417,15306.210799292,15306.849326334,15308.792701875,1,0.745936584000447
102,29,1,categorization,0,bathroom,SHINEd_sun_acgyywnybuveqsro.tif,18,0.0666666666666667,0.0666666666666667,1.91666666666667,15308.811535542,15309.625550917,13,15308.8786295,15308.944308709,15309.650932375,15311.560973542,1,0.814015375000963
102,30,1,categorization,0,kitchen,SHINEd_sun_awcpdzzznmweyyhv.tif,106,0.0666666666666667,0.0666666666666667,1.41666666666667,15311.579622,15312.5143355,9,15311.646570875,15311.712733084,15312.536073417,15313.94612275,1,0.934713500000726
102,31,1,categorization,0,kitchen,SHINEd_sun_aaxxjlsuzvqlgylf.tif,68,0.0666666666666667,0.0666666666666667,0.716666666666667,15313.964471042,15315.221215625,9,15314.031617417,15314.097468917,15315.239487917,15315.949493625,1,1.25674458300091
102,32,1,categorization,0,bathroom,SHINEd_sun_ahaulkltgpkeeemi.tif,26,0.0666666666666667,0.0666666666666667,1.28333333333333,15315.954256375,15316.717469084,13,15316.016019542,15316.076994292,15316.728846542,15318.005564,1,0.763212709000072
102,33,1,categorization,0,bathroom,SHINEd_sun_avhrdrntsqrjzccq.tif,55,0.0666666666666667,0.0666666666666667,0.9,15318.02591125,15319.432960167,9,15318.092816959,15318.158874459,15319.449916709,15320.343253792,0,1.40704891699897
102,34,1,categorization,0,kitchen,SHINEd_sun_aehawpgmrlhlvcow.tif,81,0.0666666666666667,0.0666666666666667,0.8,15320.348343542,15321.238065709,9,15320.41026675,15320.471059167,15321.256338625,15322.049678292,1,0.889722166999491
102,35,1,categorization,0,bathroom,SHINEd_sun_apynckhmoftszqoq.tif,47,0.0666666666666667,0.0666666666666667,1.01666666666667,15322.057914084,15323.085138459,13,15322.119643084,15322.180565917,15323.099476375,15324.1095085,1,1.02722437500051
102,36,1,categorization,0,bathroom,SHINEd_sun_aclfzgynxzxlbepz.tif,19,0.0666666666666667,0.0666666666666667,0.85,15324.120700959,15325.394800667,13,15324.185335,15324.252159375,15325.408173542,15326.251512167,1,1.27409970799999
102,37,1,categorization,0,bathroom,SHINEd_sun_agrwbmhcpmfuwmsg.tif,24,0.0666666666666667,0.0666666666666667,1.51666666666667,15326.257153459,15327.573291625,13,15326.318814209,15326.379806334,15327.58223675,15329.092283334,1,1.31613816599929
102,38,1,categorization,0,kitchen,SHINEd_sun_abdenxonkemggwsq.tif,69,0.0666666666666667,0.0666666666666667,1.83333333333333,15329.111691584,15330.030494417,9,15329.178677042,15329.244398375,15330.050885584,15331.877593709,1,0.918802833000882
102,39,1,categorization,0,kitchen,SHINEd_sun_aexklacwqwezaorf.tif,84,0.0666666666666667,0.0666666666666667,0.716666666666667,15331.893534709,15333.949160167,9,15331.960463542,15332.026446,15333.962548917,15334.672553084,1,2.05562545800058
102,40,1,categorization,0,kitchen,SHINEd_sun_admlmbcdswaszruo.tif,79,0.0666666666666667,0.0666666666666667,0.9,15334.677267959,15335.845326584,9,15334.739002292,15334.799907,15335.8520385,15336.745377834,1,1.16805862500041
102,41,1,categorization,0,kitchen,SHINEd_sun_adgqasybjyktddhj.tif,78,0.0666666666666667,0.0666666666666667,0.916666666666667,15336.75097,15339.237678334,13,15336.812702417,15336.873665292,15339.24289525,15340.1529005,0,2.48670833400138
102,42,1,categorization,0,kitchen,SHINEd_sun_ajcbwwvdlsvjyzje.tif,96,0.0666666666666667,0.0666666666666667,0.816666666666667,15340.157877542,15341.221713375,9,15340.21979275,15340.280493625,15341.232429084,15342.042434709,1,1.06383583299976
102,43,1,categorization,0,kitchen,SHINEd_sun_aeqdocilnnpuvuhx.tif,83,0.0666666666666667,0.0666666666666667,1.88333333333333,15342.04814675,15343.381605334,9,15342.109853459,15342.170940667,15343.390388875,15345.267112542,1,1.33345858400025
102,44,1,categorization,0,kitchen,SHINEd_sun_acfmftudsenhrfhy.tif,74,0.0666666666666667,0.0666666666666667,0.9,15345.286284834,15346.525759334,9,15345.353541,15345.419048667,15346.538472125,15347.431809542,1,1.23947450000014
102,45,1,categorization,0,bathroom,SHINEd_sun_aofnryafpsjimzsb.tif,40,0.0666666666666667,0.0666666666666667,1,15347.436451,15348.805017667,9,15347.498299667,15347.55912425,15348.811969292,15349.8053085,0,1.36856666700078
102,46,1,categorization,0,bathroom,SHINEd_sun_aspsyogrekjtfozg.tif,50,0.0666666666666667,0.0666666666666667,0.733333333333333,15349.810227,15352.34941325,13,15349.87198325,15349.932930625,15352.36849325,15353.095167,1,2.53918625000006
102,47,1,categorization,0,kitchen,SHINEd_sun_aixorpehvfykdynp.tif,95,0.0666666666666667,0.0666666666666667,0.883333333333333,15353.100056959,15354.485526292,13,15353.161865584,15353.222811042,15354.491746542,15355.368417667,0,1.38546933299949
102,48,1,categorization,0,kitchen,SHINEd_sun_aypmqwcualkenuoe.tif,109,0.0666666666666667,0.0666666666666667,1.73333333333333,15355.374817417,15356.901779209,9,15355.436585625,15355.497570167,15356.916943709,15358.643655625,1,1.52696179200029
102,49,1,categorization,0,kitchen,SHINEd_sun_aamedkxepzlwuxes.tif,65,0.0666666666666667,0.0666666666666667,1.91666666666667,15358.662465125,15360.396938959,13,15358.729470667,15358.793097084,15360.412306334,15362.322335334,0,1.7344738339998
102,50,1,categorization,0,kitchen,SHINEd_sun_aenotlpyftoioydp.tif,82,0.0666666666666667,0.0666666666666667,1.35,15362.334265834,15363.266365,9,15362.402712834,15362.467147459,15363.289854167,15364.633230709,1,0.932099165998807
102,1,2,categorization,0,bathroom,SHINEd_sun_aggnnqpdorgxpvce.tif,21,0.0666666666666667,0.0666666666666667,0.95,15381.946820375,15383.333135542,9,15382.009163417,15382.069534042,15383.338504917,15384.281843875,0,1.38631516699934
102,2,2,categorization,0,bathroom,SHINEd_sun_afcoljnjfoxjtgja.tif,20,0.0666666666666667,0.0666666666666667,0.75,15384.286671125,15386.045185209,9,15384.348458584,15384.409246792,15386.061760417,15386.805099209,0,1.75851408399831
102,3,2,categorization,0,kitchen,SHINEd_sun_afuyedyxivkhecmu.tif,85,0.0666666666666667,0.0666666666666667,1.68333333333333,15386.810873792,15388.453333792,9,15386.872865125,15386.933595167,15388.468935625,15390.145635084,1,1.64246000000094
102,4,2,categorization,0,bathroom,SHINEd_sun_apmqjbnwghzuhhzh.tif,46,0.0666666666666667,0.0666666666666667,0.816666666666667,15390.163565209,15391.14851875,13,15390.230457084,15390.29450925,15391.167392167,15391.977397167,1,0.984953540999413
102,5,2,categorization,0,bathroom,SHINEd_sun_anryaplzeujmzfkd.tif,39,0.0666666666666667,0.0666666666666667,0.916666666666667,15391.9831235,15392.837554334,9,15392.045074542,15392.105966167,15392.841328667,15393.751334625,0,0.854430834000595
102,6,2,categorization,0,bathroom,SHINEd_sun_aoybiabnpadelefl.tif,41,0.0666666666666667,0.0666666666666667,1.21666666666667,15393.756280792,15395.253501417,13,15393.81808025,15393.879162959,15395.264943417,15396.475002417,1,1.49722062500041
102,7,2,categorization,0,bathroom,SHINEd_sun_ahcvzmoyaycdoftf.tif,27,0.0666666666666667,0.0666666666666667,0.9,15396.493204917,15397.551949042,9,15396.560063875,15396.626309709,15397.5654675,15398.458805459,0,1.05874412499907
102,8,2,categorization,0,bathroom,SHINEd_sun_apkxzenqapsujocq.tif,45,0.0666666666666667,0.0666666666666667,1.65,15398.464549834,15399.50890525,13,15398.526368834,15398.587287167,15399.52264575,15401.166033125,1,1.04435541600105
102,9,2,categorization,0,kitchen,SHINEd_sun_ahpczsiumwwocjkv.tif,92,0.0666666666666667,0.0666666666666667,1.15,15401.184996417,15402.151452875,9,15401.2515835,15401.317670042,15402.1744925,15403.317882667,1,0.966456457999811
102,10,2,categorization,0,kitchen,SHINEd_sun_akchetnepxlcxhsu.tif,98,0.0666666666666667,0.0666666666666667,1.13333333333333,15403.328236959,15404.985999875,13,15403.395184584,15403.461056375,15405.003102917,15406.129820959,0,1.65776291600014
102,11,2,categorization,0,bathroom,SHINEd_sun_akiytfaagpdsphgz.tif,31,0.0666666666666667,0.0666666666666667,1.76666666666667,15406.141770209,15407.264055584,9,15406.206653459,15406.269984917,15407.294550625,15409.054606167,0,1.1222853750005
102,12,2,categorization,0,bathroom,SHINEd_sun_amzlamotzwfkwjco.tif,37,0.0666666666666667,0.0666666666666667,1.8,15409.072651334,15410.136798,13,15409.139513292,15409.206743834,15410.163407209,15411.956803334,1,1.06414666599994
102,13,2,categorization,0,bathroom,SHINEd_sun_asfwthctfqerjvxr.tif,49,0.0666666666666667,0.0666666666666667,0.9,15411.97627825,15413.061670917,9,15412.043195584,15412.109187459,15413.082582625,15413.975921917,0,1.08539266700063
102,14,2,categorization,0,bathroom,SHINEd_sun_abjtwfukuwddzted.tif,15,0.0666666666666667,0.0666666666666667,0.716666666666667,15413.98179275,15415.365080917,13,15414.043656542,15414.1045005,15415.373469167,15416.083476125,1,1.38328816699868
102,15,2,categorization,0,bathroom,SHINEd_labelme_sfxiulhjbhlyiyt.tif,11,0.0666666666666667,0.0666666666666667,1.36666666666667,15416.090000584,15417.269643667,9,15416.151850042,15416.212643167,15417.281894417,15418.641952542,0,1.17964308299997
102,16,2,categorization,0,kitchen,SHINEd_labelme_brsyyvweiuaazfr.tif,61,0.0666666666666667,0.0666666666666667,0.916666666666667,15418.6611495,15420.216418834,9,15418.728251167,15418.789984917,15420.232323417,15421.142332834,1,1.5552693339996
102,17,2,categorization,0,kitchen,SHINEd_sun_auticobqsbwgoppi.tif,104,0.0666666666666667,0.0666666666666667,0.716666666666667,15421.148283084,15422.549183042,9,15421.210177542,15421.271060875,15422.556638459,15423.266642959,1,1.40089995800008
102,18,2,categorization,0,bathroom,SHINEd_sun_aljolscmmzydegqp.tif,33,0.0666666666666667,0.0666666666666667,0.766666666666667,15423.273358792,15425.125408334,9,15423.335190042,15423.395979625,15425.131615792,15425.891621667,0,1.85204954200162
102,19,2,categorization,0,bathroom,SHINEd_sun_awnqiikzaispgmwo.tif,56,0.0666666666666667,0.0666666666666667,1.06666666666667,15425.897467292,15426.908646417,13,15425.959270875,15426.020222209,15426.922119334,15427.982158,1,1.01117912500013
102,20,2,categorization,0,kitchen,SHINEd_sun_abftihopvusyfakt.tif,71,0.0666666666666667,0.0666666666666667,0.8,15427.994708,15428.879971042,9,15428.060350709,15428.123424917,15428.896027542,15429.6894005,1,0.885263042000588
102,21,2,categorization,0,kitchen,SHINEd_sun_acxkpeoqbwcxfvip.tif,77,0.0666666666666667,0.0666666666666667,0.866666666666667,15429.708397667,15430.869095834,9,15429.774931334,15429.841540334,15430.87670875,15431.736714125,1,1.16069816699928
102,22,2,categorization,0,bathroom,SHINEd_sun_aapitsgbtktqubfy.tif,12,0.0666666666666667,0.0666666666666667,1.48333333333333,15431.74202875,15432.653205917,13,15431.8037665,15431.864599709,15432.666752167,15434.143462542,1,0.911177166999551
102,23,2,categorization,0,kitchen,SHINEd_sun_ahdycvpopffkzzsu.tif,90,0.0666666666666667,0.0666666666666667,1.1,15434.160065292,15435.35408925,13,15434.226903292,15434.291365875,15435.380230959,15436.473622042,0,1.19402395799989
102,24,2,categorization,0,kitchen,SHINEd_sun_aarfiyshqohlwkmo.tif,67,0.0666666666666667,0.0666666666666667,0.783333333333333,15436.485713459,15437.581956167,9,15436.551368542,15436.619794792,15437.608004292,15438.384720667,1,1.09624270799941
102,25,2,categorization,0,kitchen,SHINEd_sun_avszsnwsbuqfgzbn.tif,105,0.0666666666666667,0.0666666666666667,0.866666666666667,15438.401162792,15439.405443917,9,15438.464389125,15438.524047834,15439.409389584,15440.269395625,1,1.00428112499867
102,26,2,categorization,0,bathroom,SHINEd_sun_auzqhkafidnkrwmo.tif,54,0.0666666666666667,0.0666666666666667,1.83333333333333,15440.27438275,15441.348503417,9,15440.336193417,15440.397099084,15441.3659875,15443.192709875,0,1.0741206670009
102,27,2,categorization,0,kitchen,SHINEd_sun_acgtpgfybqjmzeyw.tif,75,0.0666666666666667,0.0666666666666667,0.7,15443.209869875,15444.336579042,9,15443.276806667,15443.343003709,15444.347803625,15445.041141959,1,1.12670916699972
102,28,2,categorization,0,kitchen,SHINEd_labelme_kxvouciolcpqplr.tif,62,0.0666666666666667,0.0666666666666667,1.33333333333333,15445.046648875,15446.468632459,9,15445.108411292,15445.169419,15446.488558959,15447.815278334,1,1.42198358399946
102,29,2,categorization,0,kitchen,SHINEd_sun_axyyrmzcupyhlivc.tif,107,0.0666666666666667,0.0666666666666667,1.33333333333333,15447.833629,15448.652533709,9,15447.90190925,15447.966277917,15448.672256417,15449.998967292,1,0.81890470899998
102,30,2,categorization,0,bathroom,SHINEd_sun_abapwbhyhkfixyex.tif,14,0.0666666666666667,0.0666666666666667,1.38333333333333,15450.017387542,15450.832346334,9,15450.08426425,15450.150658292,15450.8575885,15452.234312125,0,0.814958791999743
102,31,2,categorization,0,kitchen,SHINEd_sun_abdxkyyxwfskuaqb.tif,70,0.0666666666666667,0.0666666666666667,1.25,15452.253404084,15453.165652584,9,15452.3184325,15452.386278292,15453.192622792,15454.436009667,1,0.912248500000715
102,32,2,categorization,0,bathroom,SHINEd_sun_alkosphxlxwjwgjd.tif,34,0.0666666666666667,0.0666666666666667,1.55,15454.455286959,15455.4180065,9,15454.522433084,15454.588153125,15455.444823917,15456.988203,0,0.962719540999387
102,33,2,categorization,0,kitchen,SHINEd_sun_ahspylgoovwmwvgk.tif,93,0.0666666666666667,0.0666666666666667,1.61666666666667,15457.008275417,15458.072456959,9,15457.074789584,15457.140984917,15458.097632959,15459.707672167,1,1.06418154200037
102,34,2,categorization,0,kitchen,SHINEd_sun_agzzivivdpnawacl.tif,89,0.0666666666666667,0.0666666666666667,1.33333333333333,15459.725421709,15460.992026417,9,15459.792433792,15459.858483292,15461.018077042,15462.344796917,1,1.26660470800016
102,35,2,categorization,0,bathroom,SHINEd_sun_aunuadmjocsddsrl.tif,52,0.0666666666666667,0.0666666666666667,0.833333333333333,15462.358762417,15463.614215084,13,15462.425848292,15462.492006709,15463.631687125,15464.45835725,1,1.25545266700101
102,36,2,categorization,0,bathroom,SHINEd_sun_acduarbnmmoglmiv.tif,16,0.0666666666666667,0.0666666666666667,1.45,15464.463430459,15465.445175834,9,15464.525238292,15464.586192542,15465.454659417,15466.898034084,0,0.981745375000173
102,37,2,categorization,0,bathroom,SHINEd_sun_agyqfjcfkdcydepw.tif,25,0.0666666666666667,0.0666666666666667,0.933333333333333,15466.916496292,15467.975861042,9,15466.984271125,15467.049483584,15468.005709,15468.932382334,0,1.05936474999908
102,38,2,categorization,0,bathroom,SHINEd_sun_azqyogdvyhahyram.tif,60,0.0666666666666667,0.0666666666666667,1.65,15468.940266667,15470.08527375,9,15469.002338459,15469.062984167,15470.098091667,15471.7414635,0,1.14500708300147
102,39,2,categorization,0,kitchen,SHINEd_sun_aymvwlarqodbwuoc.tif,108,0.0666666666666667,0.0666666666666667,1.23333333333333,15471.760475959,15472.935957042,9,15471.82776425,15471.893902167,15472.948628375,15474.175342125,1,1.1754810830007
102,40,2,categorization,0,bathroom,SHINEd_sun_apjevzvycyhuqghb.tif,43,0.0666666666666667,0.0666666666666667,0.766666666666667,15474.194321584,15475.172493042,9,15474.260185667,15474.327877959,15475.200055834,15475.960103209,0,0.978171458000361
102,41,2,categorization,0,kitchen,SHINEd_sun_aapllqyqlykszopd.tif,66,0.0666666666666667,0.0666666666666667,1.78333333333333,15475.968332125,15476.98874775,9,15476.030250584,15476.091229959,15476.993241292,15478.769957625,1,1.02041562500017
102,42,2,categorization,0,bathroom,SHINEd_sun_agguqiubmwhqqunb.tif,22,0.0666666666666667,0.0666666666666667,1.11666666666667,15478.787593834,15479.682504042,9,15478.855411792,15478.920677125,15479.71076475,15480.820822292,0,0.89491020800051
102,43,2,categorization,0,bathroom,SHINEd_sun_anhioqovhscjqqwb.tif,38,0.0666666666666667,0.0666666666666667,1.85,15480.831299042,15482.176966375,9,15480.89604725,15480.963394209,15482.206678417,15484.05005925,0,1.34566733300016
102,44,2,categorization,0,kitchen,SHINEd_sun_akcjzhbbjlbogpdi.tif,99,0.0666666666666667,0.0666666666666667,0.733333333333333,15484.063330917,15485.00789675,9,15484.130294834,15484.19616275,15485.036441292,15485.7631135,1,0.944565832998705
102,45,2,categorization,0,bathroom,SHINEd_sun_atstyziqcmkahyxk.tif,51,0.0666666666666667,0.0666666666666667,0.783333333333333,15485.769213125,15486.797191542,13,15485.831026209,15485.892081542,15486.810711625,15487.587382417,1,1.02797841699976
102,46,2,categorization,0,bathroom,SHINEd_sun_apeeialkgkuxddgh.tif,42,0.0666666666666667,0.0666666666666667,1.5,15487.5931235,15488.964914417,13,15487.654983584,15487.715873667,15488.984935209,15490.478308959,1,1.37179091699909
102,47,2,categorization,0,kitchen,SHINEd_labelme_rykdqxenmhulbdn.tif,63,0.0666666666666667,0.0666666666666667,0.733333333333333,15490.497035667,15491.470531,9,15490.56371525,15490.63007775,15491.486009125,15492.212681084,1,0.973495333000756
102,48,2,categorization,0,kitchen,SHINEd_sun_ajkqhtgcbgpcwrwn.tif,97,0.0666666666666667,0.0666666666666667,1.1,15492.218673625,15493.421281375,9,15492.280349917,15492.341456209,15493.427366834,15494.520743625,1,1.20260774999952
102,49,2,categorization,0,kitchen,SHINEd_sun_abrcnpqqhmjwekyf.tif,73,0.0666666666666667,0.0666666666666667,1.6,15494.532215667,15495.641927625,9,15494.598057542,15494.6650855,15495.672064792,15497.265455875,1,1.10971195799902
102,50,2,categorization,0,bathroom,SHINEd_sun_axxbkopsgyouuebh.tif,58,0.0666666666666667,0.0666666666666667,1.06666666666667,15497.283801417,15498.230836334,13,15497.351043834,15497.416846,15498.256796375,15499.31682975,1,0.947034917000565
102,1,3,categorization,0,bathroom,SHINEd_sun_awnqiikzaispgmwo.tif,56,0.0666666666666667,0.0666666666666667,0.85,15509.032074084,15509.804438792,13,15509.094659459,15509.155159542,15509.8237215,15510.667061084,1,0.772364708000168
102,2,3,categorization,0,kitchen,SHINEd_sun_agorklincwxrdtga.tif,87,0.0666666666666667,0.0666666666666667,1.65,15510.672828459,15511.676972667,13,15510.734566334,15510.795673959,15511.681424875,15513.324800125,0,1.00414420800007
102,3,3,categorization,0,bathroom,SHINEd_sun_ahqjwnzgolcaoidx.tif,29,0.0666666666666667,0.0666666666666667,0.783333333333333,15513.342940792,15515.004665292,13,15513.409800084,15513.475777417,15515.012091125,15515.788761792,1,1.66172449999976
102,4,3,categorization,0,kitchen,SHINEd_labelme_rykdqxenmhulbdn.tif,63,0.0666666666666667,0.0666666666666667,0.933333333333333,15515.793712417,15516.669101792,9,15515.855435084,15515.916378917,15516.684780625,15517.611452834,1,0.875389374999941
102,5,3,categorization,0,kitchen,SHINEd_sun_acgtpgfybqjmzeyw.tif,75,0.0666666666666667,0.0666666666666667,0.866666666666667,15517.617354875,15518.772607792,9,15517.679180584,15517.739905084,15518.792576125,15519.652581292,1,1.15525291700033
102,6,3,categorization,0,kitchen,SHINEd_sun_agubuxuukhzyzpdp.tif,88,0.0666666666666667,0.0666666666666667,1.11666666666667,15519.657137584,15520.47667675,9,15519.718939709,15519.779774959,15520.481504417,15521.5915385,1,0.81953916600105
102,7,3,categorization,0,bathroom,SHINEd_sun_ahaulkltgpkeeemi.tif,26,0.0666666666666667,0.0666666666666667,0.966666666666667,15521.603306584,15522.372485834,13,15521.667221709,15521.736317167,15522.392498625,15523.352562334,1,0.76917924999907
102,8,3,categorization,0,bathroom,SHINEd_sun_agrwbmhcpmfuwmsg.tif,24,0.0666666666666667,0.0666666666666667,1.78333333333333,15523.369158042,15524.268637125,13,15523.435973834,15523.501714959,15524.287281,15526.063997209,1,0.899479083000188
102,9,3,categorization,0,bathroom,SHINEd_sun_aavhrsfjbserjtht.tif,13,0.0666666666666667,0.0666666666666667,1.55,15526.082876042,15526.838936334,9,15526.149511792,15526.215618709,15526.855136959,15528.398528709,0,0.756060291998438
102,10,3,categorization,0,kitchen,SHINEd_sun_aypmqwcualkenuoe.tif,109,0.0666666666666667,0.0666666666666667,1.41666666666667,15528.417154834,15529.285439459,9,15528.484077,15528.550183167,15529.306552334,15530.716589792,1,0.868284624999433
102,11,3,categorization,0,kitchen,SHINEd_sun_abftihopvusyfakt.tif,71,0.0666666666666667,0.0666666666666667,0.8,15530.735069334,15531.728296417,13,15530.801404292,15530.868000125,15531.757855209,15532.551194375,0,0.993227083001329
102,12,3,categorization,0,kitchen,SHINEd_sun_aadbddgrdsjugojn.tif,64,0.0666666666666667,0.0666666666666667,1.28333333333333,15532.557046667,15533.740297959,9,15532.618911334,15532.679828084,15533.748802459,15535.025515042,1,1.18325129200093
102,13,3,categorization,0,kitchen,SHINEd_sun_aegoxogugdkwpmpj.tif,80,0.0666666666666667,0.0666666666666667,1.66666666666667,15535.040341792,15536.320056417,9,15535.107072584,15535.173186167,15536.347683125,15538.007733917,1,1.27971462499954
102,14,3,categorization,0,kitchen,SHINEd_sun_adgqasybjyktddhj.tif,78,0.0666666666666667,0.0666666666666667,1.81666666666667,15538.027460042,15538.917743959,9,15538.094233709,15538.160562375,15538.932762709,15540.7427985,1,0.890283917000488
102,15,3,categorization,0,bathroom,SHINEd_sun_auzqhkafidnkrwmo.tif,54,0.0666666666666667,0.0666666666666667,1.35,15540.76097025,15541.493080917,13,15540.827887125,15540.893943667,15541.517268375,15542.860662542,1,0.732110667000597
102,16,3,categorization,0,bathroom,SHINEd_sun_axxbkopsgyouuebh.tif,58,0.0666666666666667,0.0666666666666667,0.916666666666667,15542.878616709,15543.712083584,13,15542.946054459,15543.011445667,15543.735039584,15544.645046417,1,0.833466874999431
102,17,3,categorization,0,bathroom,SHINEd_sun_acgyywnybuveqsro.tif,18,0.0666666666666667,0.0666666666666667,0.916666666666667,15544.651035375,15545.404756209,13,15544.712759667,15544.773800584,15545.408898209,15546.318904125,1,0.753720833999978
102,18,3,categorization,0,kitchen,SHINEd_sun_aunzlwrbjumxhwdj.tif,103,0.0666666666666667,0.0666666666666667,1.31666666666667,15546.323806875,15547.092992084,9,15546.385517709,15546.446518042,15547.098681167,15548.408730625,1,0.76918520900108
102,19,3,categorization,0,bathroom,SHINEd_sun_acegryoqftbzowsg.tif,17,0.0666666666666667,0.0666666666666667,1.45,15548.426293292,15549.202527125,9,15548.493016542,15548.559466792,15549.232745167,15550.676125667,0,0.776233833001243
102,20,3,categorization,0,bathroom,SHINEd_sun_aljolscmmzydegqp.tif,33,0.0666666666666667,0.0666666666666667,0.95,15550.693997834,15551.978240959,9,15550.760927375,15550.827341084,15552.003539875,15552.9468795,0,1.28424312500101
102,21,3,categorization,0,kitchen,SHINEd_sun_abrcnpqqhmjwekyf.tif,73,0.0666666666666667,0.0666666666666667,1.38333333333333,15552.952665584,15554.524072875,9,15553.014546625,15553.075324,15554.527384584,15555.904089792,1,1.57140729099956
102,22,3,categorization,0,bathroom,SHINEd_sun_ahcvzmoyaycdoftf.tif,27,0.0666666666666667,0.0666666666666667,1.16666666666667,15555.916594792,15556.598360792,13,15555.983942,15556.049734584,15556.623326625,15557.783367709,1,0.681766000001517
102,23,3,categorization,0,kitchen,SHINEd_sun_aymvwlarqodbwuoc.tif,108,0.0666666666666667,0.0666666666666667,1.61666666666667,15557.8026055,15558.806798,9,15557.869444125,15557.935392209,15558.825250667,15560.435308375,1,1.0041925000005
102,24,3,categorization,0,bathroom,SHINEd_sun_agguqiubmwhqqunb.tif,22,0.0666666666666667,0.0666666666666667,1.38333333333333,15560.454797375,15561.1602235,13,15560.521423709,15560.588254167,15561.178162084,15562.5548625,1,0.705426124999576
102,25,3,categorization,0,kitchen,SHINEd_sun_akcjzhbbjlbogpdi.tif,99,0.0666666666666667,0.0666666666666667,1.78333333333333,15562.57444075,15563.256947209,9,15562.641056792,15562.707471042,15563.281093875,15565.057810334,1,0.682506458999342
102,26,3,categorization,0,kitchen,SHINEd_sun_admlmbcdswaszruo.tif,79,0.0666666666666667,0.0666666666666667,0.783333333333333,15565.077101959,15565.865543875,9,15565.144022542,15565.210124584,15565.883329334,15566.660001709,1,0.788441916000011
102,27,3,categorization,0,kitchen,SHINEd_sun_aehawpgmrlhlvcow.tif,81,0.0666666666666667,0.0666666666666667,1.65,15566.6659365,15567.2686945,9,15566.727704292,15566.788658667,15567.27384325,15568.917211042,1,0.602758000000904
102,28,3,categorization,0,kitchen,SHINEd_sun_ahpczsiumwwocjkv.tif,92,0.0666666666666667,0.0666666666666667,1.86666666666667,15568.936271334,15569.736723,9,15569.002620709,15569.068682084,15569.758763417,15571.618803792,1,0.800451666000299
102,29,3,categorization,0,kitchen,SHINEd_sun_awcpdzzznmweyyhv.tif,106,0.0666666666666667,0.0666666666666667,1.23333333333333,15571.637929959,15572.392923625,9,15571.704758834,15571.770939042,15572.410400834,15573.637122209,1,0.754993665999791
102,30,3,categorization,0,bathroom,SHINEd_sun_acduarbnmmoglmiv.tif,16,0.0666666666666667,0.0666666666666667,0.7,15573.65463425,15574.764018959,13,15573.721173375,15573.78741425,15574.794125334,15575.487463792,1,1.10938470899964
102,31,3,categorization,0,kitchen,SHINEd_sun_auaiucuqpdausiva.tif,102,0.0666666666666667,0.0666666666666667,0.716666666666667,15575.49325425,15576.148233792,9,15575.554961417,15575.615966959,15576.167839667,15576.877846334,1,0.654979542001456
102,32,3,categorization,0,kitchen,SHINEd_sun_agzzivivdpnawacl.tif,89,0.0666666666666667,0.0666666666666667,1.05,15576.883754125,15577.828282417,13,15576.945665417,15577.006409,15577.841624667,15578.884999667,0,0.944528292000541
102,33,3,categorization,0,bathroom,SHINEd_labelme_sfxiulhjbhlyiyt.tif,11,0.0666666666666667,0.0666666666666667,1.1,15578.896610709,15579.655136959,9,15578.962122584,15579.027979667,15579.684399042,15580.777780084,0,0.758526249999704
102,34,3,categorization,0,bathroom,SHINEd_sun_apynckhmoftszqoq.tif,47,0.0666666666666667,0.0666666666666667,1.13333333333333,15580.793993167,15581.692105667,13,15580.860758,15580.926438959,15581.711936542,15582.8386425,1,0.898112499999115
102,35,3,categorization,0,kitchen,SHINEd_sun_azmutvzbxypaceni.tif,110,0.0666666666666667,0.0666666666666667,1.38333333333333,15582.848256125,15583.947936667,9,15582.913390625,15582.981157084,15583.970385,15585.347102084,1,1.09968054199999
102,36,3,categorization,0,kitchen,SHINEd_sun_aqeaevwwwjoqhzvl.tif,101,0.0666666666666667,0.0666666666666667,1.5,15585.364544042,15586.2951895,9,15585.43284025,15585.49760675,15586.319196959,15587.812577834,1,0.930645458000072
102,37,3,categorization,0,bathroom,SHINEd_sun_apmqjbnwghzuhhzh.tif,46,0.0666666666666667,0.0666666666666667,1.61666666666667,15587.831665084,15588.589475542,13,15587.898652792,15587.964438292,15588.603492084,15590.213525959,1,0.757810457998858
102,38,3,categorization,0,kitchen,SHINEd_sun_axyyrmzcupyhlivc.tif,107,0.0666666666666667,0.0666666666666667,0.983333333333333,15590.232866625,15591.606391834,9,15590.29817075,15590.365654375,15591.624326417,15592.600997667,1,1.37352520900095
102,39,3,categorization,0,bathroom,SHINEd_sun_apkxzenqapsujocq.tif,45,0.0666666666666667,0.0666666666666667,1.3,15592.606889792,15593.380108,13,15592.66866675,15592.729686959,15593.398054584,15594.691426,1,0.773218207999889
102,40,3,categorization,0,bathroom,SHINEd_sun_asfwthctfqerjvxr.tif,49,0.0666666666666667,0.0666666666666667,1.03333333333333,15594.709120167,15595.637346417,13,15594.775108917,15594.842290709,15595.665714084,15596.692437667,1,0.92822625000008
102,41,3,categorization,0,bathroom,SHINEd_sun_anryaplzeujmzfkd.tif,39,0.0666666666666667,0.0666666666666667,1.45,15596.703796167,15597.462666417,13,15596.768844,15596.835084,15597.491441542,15598.934819042,1,0.758870249999745
102,42,3,categorization,0,bathroom,SHINEd_sun_ausgutylgojavyoq.tif,53,0.0666666666666667,0.0666666666666667,1.23333333333333,15598.95423175,15599.95705875,9,15599.02091775,15599.087002959,15599.976750792,15601.203464334,0,1.00282700000025
102,43,3,categorization,0,bathroom,SHINEd_sun_axyrejkiiaqiurjk.tif,59,0.0666666666666667,0.0666666666666667,1.26666666666667,15601.221317667,15602.288587459,9,15601.287986542,15601.353949084,15602.308999834,15603.569043917,0,1.06726979199993
102,44,3,categorization,0,bathroom,SHINEd_sun_abjtwfukuwddzted.tif,15,0.0666666666666667,0.0666666666666667,1.03333333333333,15603.581356834,15604.732772292,9,15603.648308167,15603.71412925,15604.753435625,15605.780161584,0,1.15141545799997
102,45,3,categorization,0,kitchen,SHINEd_sun_aarfiyshqohlwkmo.tif,67,0.0666666666666667,0.0666666666666667,1.31666666666667,15605.79125925,15606.794321167,13,15605.857248125,15605.922525042,15606.812078084,15608.122139084,0,1.00306191700111
102,46,3,categorization,0,bathroom,SHINEd_sun_amzlamotzwfkwjco.tif,37,0.0666666666666667,0.0666666666666667,1.7,15608.139482417,15609.417868917,9,15608.206371084,15608.268352709,15609.445785292,15611.139160042,0,1.27838650000012
102,47,3,categorization,0,kitchen,SHINEd_sun_ahdycvpopffkzzsu.tif,90,0.0666666666666667,0.0666666666666667,1.35,15611.158441584,15612.964624875,13,15611.225349,15611.291453125,15612.977582375,15614.320977792,0,1.80618329099889
102,48,3,categorization,0,bathroom,SHINEd_sun_aqrpegblszgcoujh.tif,48,0.0666666666666667,0.0666666666666667,0.8,15614.335197792,15615.149178042,13,15614.402274959,15614.467784709,15615.174742042,15615.9681325,1,0.813980250000895
102,49,3,categorization,0,kitchen,SHINEd_sun_auticobqsbwgoppi.tif,104,0.0666666666666667,0.0666666666666667,0.766666666666667,15615.984897667,15617.244075709,13,15616.052041375,15616.111127542,15617.263442709,15618.023450542,0,1.25917804200071
102,50,3,categorization,0,bathroom,SHINEd_sun_avhrdrntsqrjzccq.tif,55,0.0666666666666667,0.0666666666666667,1.38333333333333,15618.028883042,15619.316603167,13,15618.090678625,15618.151552417,15619.320353334,15620.697061667,1,1.28772012500121
102,1,4,categorization,0,bathroom,SHINEd_sun_agyqfjcfkdcydepw.tif,25,0.0666666666666667,0.0666666666666667,1,15629.546048542,15630.460300792,9,15629.608327875,15629.668910917,15630.470727,15631.464066459,0,0.914252249998754
102,2,4,categorization,0,bathroom,SHINEd_sun_axldvoqbuvuggfmq.tif,57,0.0666666666666667,0.0666666666666667,0.966666666666667,15631.469063334,15632.484300042,13,15631.530797834,15631.591805834,15632.493651334,15633.45365875,1,1.01523670800088
102,3,4,categorization,0,kitchen,SHINEd_sun_ahspylgoovwmwvgk.tif,93,0.0666666666666667,0.0666666666666667,1.75,15633.459481625,15634.244033334,9,15633.521308959,15633.58214,15634.251131625,15635.994498125,1,0.78455170900088
102,4,4,categorization,0,bathroom,SHINEd_sun_anhioqovhscjqqwb.tif,38,0.0666666666666667,0.0666666666666667,1.68333333333333,15636.013124292,15637.555942334,13,15636.07986725,15636.146035709,15637.566115542,15639.242824334,1,1.54281804200036
102,5,4,categorization,0,kitchen,SHINEd_sun_abdenxonkemggwsq.tif,69,0.0666666666666667,0.0666666666666667,1.58333333333333,15639.261334792,15639.9851305,9,15639.328167375,15639.394435125,15640.000416834,15641.577142167,1,0.72379570799967
102,6,4,categorization,0,kitchen,SHINEd_sun_acxkpeoqbwcxfvip.tif,77,0.0666666666666667,0.0666666666666667,1,15641.590140209,15642.470650959,9,15641.656982167,15641.7228965,15642.496257542,15643.489596459,1,0.880510749999303
102,7,4,categorization,0,kitchen,SHINEd_sun_acfmftudsenhrfhy.tif,74,0.0666666666666667,0.0666666666666667,1.33333333333333,15643.495404667,15644.572177,9,15643.557027375,15643.618031542,15644.586715834,15645.913416917,1,1.07677233300092
102,8,4,categorization,0,kitchen,SHINEd_sun_ajcbwwvdlsvjyzje.tif,96,0.0666666666666667,0.0666666666666667,1.26666666666667,15645.933147959,15647.105654542,9,15646.000297417,15646.065879625,15647.122118209,15648.382173125,1,1.17250658299963
102,9,4,categorization,0,bathroom,SHINEd_sun_aleqenyvunhactkl.tif,32,0.0666666666666667,0.0666666666666667,0.883333333333333,15648.399696917,15649.162023959,13,15648.46672025,15648.533010792,15649.189788125,15650.066491334,1,0.762327041999015
102,10,4,categorization,0,bathroom,SHINEd_sun_apjevzvycyhuqghb.tif,43,0.0666666666666667,0.0666666666666667,1.26666666666667,15650.084161292,15650.804699125,9,15650.148974209,15650.207413709,15650.809341834,15652.069388792,0,0.72053783299998
102,11,4,categorization,0,kitchen,SHINEd_sun_abpwyqmlzafvklqo.tif,72,0.0666666666666667,0.0666666666666667,2,15652.090979292,15653.044972334,9,15652.157257459,15652.223901167,15653.063398084,15655.0567875,1,0.953993042001457
102,12,4,categorization,0,bathroom,SHINEd_sun_aunuadmjocsddsrl.tif,52,0.0666666666666667,0.0666666666666667,0.733333333333333,15655.073847959,15655.828144084,9,15655.140508167,15655.206313667,15655.8458485,15656.572519667,0,0.75429612500011
102,13,4,categorization,0,bathroom,SHINEd_sun_aghyqhbptboemmoq.tif,23,0.0666666666666667,0.0666666666666667,0.883333333333333,15656.577605584,15657.3879355,13,15656.639393542,15656.700449209,15657.402602334,15658.279275417,1,0.810329916001137
102,14,4,categorization,0,bathroom,SHINEd_sun_aapitsgbtktqubfy.tif,12,0.0666666666666667,0.0666666666666667,0.983333333333333,15658.284097542,15659.020116,13,15658.345726375,15658.406793709,15659.025508667,15660.002180792,1,0.736018457999307
102,15,4,categorization,0,kitchen,SHINEd_sun_ahljzhgcdpomplvg.tif,91,0.0666666666666667,0.0666666666666667,1.56666666666667,15660.0075375,15660.7399505,9,15660.069183709,15660.13030425,15660.749155084,15662.309200292,1,0.732412999999724
102,16,4,categorization,0,bathroom,SHINEd_sun_atstyziqcmkahyxk.tif,51,0.0666666666666667,0.0666666666666667,1.08333333333333,15662.326479375,15663.777295667,13,15662.39349325,15662.459210125,15663.802946667,15664.8796525,1,1.45081629199922
102,17,4,categorization,0,kitchen,SHINEd_sun_aggjlwcdjsjcaemh.tif,86,0.0666666666666667,0.0666666666666667,0.75,15664.892070959,15665.648115459,9,15664.956935917,15665.024814084,15665.664640417,15666.408022667,1,0.756044499999916
102,18,4,categorization,0,bathroom,SHINEd_sun_aoybiabnpadelefl.tif,41,0.0666666666666667,0.0666666666666667,0.966666666666667,15666.425695542,15668.204103834,9,15666.492791125,15666.558557834,15668.211500625,15669.171505209,0,1.77840829199886
102,19,4,categorization,0,bathroom,SHINEd_sun_ahijqszoswveeyji.tif,28,0.0666666666666667,0.0666666666666667,1.63333333333333,15669.176342167,15669.963943125,9,15669.238252667,15669.299058417,15669.967725917,15671.594444625,0,0.78760095799953
102,20,4,categorization,0,bathroom,SHINEd_sun_ambriybtogmepttm.tif,36,0.0666666666666667,0.0666666666666667,1.46666666666667,15671.613766167,15672.524791375,13,15671.681308084,15671.747038584,15672.554366709,15674.014407084,1,0.911025208000865
102,21,4,categorization,0,kitchen,SHINEd_sun_aeqdocilnnpuvuhx.tif,83,0.0666666666666667,0.0666666666666667,0.933333333333333,15674.03284725,15675.180848709,9,15674.100012792,15674.165859375,15675.206447667,15676.133119584,1,1.14800145899972
102,22,4,categorization,0,kitchen,SHINEd_sun_abdxkyyxwfskuaqb.tif,70,0.0666666666666667,0.0666666666666667,1.45,15676.138872375,15677.627534917,13,15676.200792834,15676.261514334,15677.64711875,15679.090497417,0,1.48866254199856
102,23,4,categorization,0,kitchen,SHINEd_labelme_kxvouciolcpqplr.tif,62,0.0666666666666667,0.0666666666666667,0.966666666666667,15679.110642875,15680.344639,13,15679.177321209,15679.24341625,15680.369058125,15681.3290645,0,1.23399612499998
102,24,4,categorization,0,bathroom,SHINEd_sun_afcoljnjfoxjtgja.tif,20,0.0666666666666667,0.0666666666666667,0.816666666666667,15681.334648125,15682.508219709,13,15681.396469167,15681.457814542,15682.526346959,15683.336351834,1,1.17357158400046
102,25,4,categorization,0,bathroom,SHINEd_sun_alkosphxlxwjwgjd.tif,34,0.0666666666666667,0.0666666666666667,1.96666666666667,15683.340909625,15684.324032084,9,15683.402596334,15683.463534584,15684.332080875,15686.29211825,0,0.983122458999787
102,26,4,categorization,0,kitchen,SHINEd_sun_aenotlpyftoioydp.tif,82,0.0666666666666667,0.0666666666666667,0.916666666666667,15686.307040875,15687.172361084,9,15686.373442459,15686.440058334,15687.19624675,15688.106252625,1,0.865320208999037
102,27,4,categorization,0,bathroom,SHINEd_sun_alotolagknyrgtsk.tif,35,0.0666666666666667,0.0666666666666667,1.28333333333333,15688.111604834,15688.979588959,9,15688.173222917,15688.234355584,15688.986340292,15690.263062292,0,0.867984124999566
102,28,4,categorization,0,bathroom,SHINEd_sun_aspsyogrekjtfozg.tif,50,0.0666666666666667,0.0666666666666667,1.8,15690.27299125,15691.254932084,13,15690.337461959,15690.4059895,15691.27932175,15693.072688334,1,0.981940834000852
102,29,4,categorization,0,kitchen,SHINEd_sun_aexklacwqwezaorf.tif,84,0.0666666666666667,0.0666666666666667,1.33333333333333,15693.089053125,15693.797990959,9,15693.155699834,15693.222110459,15693.810866542,15695.137568334,1,0.708937833998789
102,30,4,categorization,0,bathroom,SHINEd_sun_akiytfaagpdsphgz.tif,31,0.0666666666666667,0.0666666666666667,1.06666666666667,15695.155992417,15696.248761084,9,15695.22152875,15695.286467542,15696.274248209,15697.334291709,0,1.0927686670002
102,31,4,categorization,0,bathroom,SHINEd_sun_aggnnqpdorgxpvce.tif,21,0.0666666666666667,0.0666666666666667,1.03333333333333,15697.346074375,15698.388815959,9,15697.411032125,15697.47785325,15698.418991459,15699.445693042,0,1.0427415840004
102,32,4,categorization,0,kitchen,SHINEd_sun_ahywdevtimnqcsln.tif,94,0.0666666666666667,0.0666666666666667,0.733333333333333,15699.456644917,15700.494936584,9,15699.521516584,15699.585468917,15700.506980709,15701.233682584,1,1.03829166700052
102,33,4,categorization,0,kitchen,SHINEd_sun_afuyedyxivkhecmu.tif,85,0.0666666666666667,0.0666666666666667,0.766666666666667,15701.250427292,15702.2843425,13,15701.317337834,15701.383227667,15702.302300709,15703.062307542,0,1.0339152079996
102,34,4,categorization,0,bathroom,SHINEd_sun_aofnryafpsjimzsb.tif,40,0.0666666666666667,0.0666666666666667,1.1,15703.067998459,15703.908043334,13,15703.129721167,15703.190697334,15703.926130959,15705.019519917,1,0.840044874999876
102,35,4,categorization,0,kitchen,SHINEd_sun_aixorpehvfykdynp.tif,95,0.0666666666666667,0.0666666666666667,1.81666666666667,15705.031883625,15706.09705975,9,15705.096736209,15705.164597209,15706.121236875,15707.931275625,1,1.0651761249992
102,36,4,categorization,0,kitchen,SHINEd_sun_aaxxjlsuzvqlgylf.tif,68,0.0666666666666667,0.0666666666666667,0.883333333333333,15707.9501535,15708.561489209,13,15708.017148042,15708.083131709,15708.570884167,15709.447555125,0,0.611335708999832
102,37,4,categorization,0,kitchen,SHINEd_sun_ajkqhtgcbgpcwrwn.tif,97,0.0666666666666667,0.0666666666666667,1.7,15709.452773584,15710.219498167,9,15709.514517959,15709.575445459,15710.227151375,15711.920530375,1,0.766724582999814
102,38,4,categorization,0,bathroom,SHINEd_sun_aclfzgynxzxlbepz.tif,19,0.0666666666666667,0.0666666666666667,1.58333333333333,15711.940439292,15712.967327917,13,15712.007133959,15712.073579459,15712.99698975,15714.573697584,1,1.02688862499963
102,39,4,categorization,0,bathroom,SHINEd_sun_azqyogdvyhahyram.tif,60,0.0666666666666667,0.0666666666666667,0.833333333333333,15714.591610542,15715.448570042,13,15714.658407084,15714.724828459,15715.464161042,15716.290833459,1,0.856959499998993
102,40,4,categorization,0,kitchen,SHINEd_sun_avszsnwsbuqfgzbn.tif,105,0.0666666666666667,0.0666666666666667,0.95,15716.295982459,15717.020281542,9,15716.357744875,15716.418657,15717.037500792,15717.980839125,1,0.724299083000005
102,41,4,categorization,0,bathroom,SHINEd_sun_apeeialkgkuxddgh.tif,42,0.0666666666666667,0.0666666666666667,1.06666666666667,15717.989243292,15718.708133167,13,15718.050941709,15718.1119135,15718.713780959,15719.773838625,1,0.718889874999149
102,42,4,categorization,0,bathroom,SHINEd_sun_abapwbhyhkfixyex.tif,14,0.0666666666666667,0.0666666666666667,1.68333333333333,15719.784219334,15720.468076875,9,15719.849093334,15719.914061334,15720.48724325,15722.16395325,0,0.683857541000179
102,43,4,categorization,0,kitchen,SHINEd_sun_akchetnepxlcxhsu.tif,98,0.0666666666666667,0.0666666666666667,1.31666666666667,15722.182119375,15722.582216167,13,15722.24909675,15722.312519667,15722.602357917,15723.912395209,0,0.400096792000113
102,44,4,categorization,0,kitchen,SHINEd_labelme_brsyyvweiuaazfr.tif,61,0.0666666666666667,0.0666666666666667,1.61666666666667,15723.928424917,15724.563783792,9,15723.990261417,15724.051064625,15724.569597417,15726.179646417,1,0.635358875000748
102,45,4,categorization,0,kitchen,SHINEd_sun_acwjdupvyjsugpay.tif,76,0.0666666666666667,0.0666666666666667,1.15,15726.19863225,15726.998787334,9,15726.2634025,15726.3279385,15727.017253792,15728.160627875,1,0.800155083999925
102,46,4,categorization,0,kitchen,SHINEd_sun_aamedkxepzlwuxes.tif,65,0.0666666666666667,0.0666666666666667,1.25,15728.169358292,15728.953595334,9,15728.234981667,15728.300298875,15728.973307375,15730.216697709,1,0.784237042000314
102,47,4,categorization,0,kitchen,SHINEd_sun_amjjdeyrggfqgmom.tif,100,0.0666666666666667,0.0666666666666667,1.1,15730.234556875,15731.831517084,13,15730.2992015,15730.367558959,15731.859078125,15732.952456292,0,1.59696020899901
102,48,4,categorization,0,bathroom,SHINEd_sun_apkruvsevgegsdwp.tif,44,0.0666666666666667,0.0666666666666667,0.9,15732.961870084,15733.808645542,13,15733.026794292,15733.094801417,15733.834991875,15734.728362959,1,0.846775457999684
102,49,4,categorization,0,bathroom,SHINEd_sun_ajlawzvmubibwbpy.tif,30,0.0666666666666667,0.0666666666666667,1.3,15734.746431875,15735.427884209,9,15734.815188417,15734.879283209,15735.431624084,15736.724996625,0,0.681452333999914
102,50,4,categorization,0,kitchen,SHINEd_sun_aapllqyqlykszopd.tif,66,0.0666666666666667,0.0666666666666667,1.25,15736.739454792,15737.520780625,9,15736.806488209,15736.872212667,15737.545429292,15738.788819709,1,0.781325833000665
102,1,5,categorization,0,bathroom,SHINEd_sun_amzlamotzwfkwjco.tif,37,0.0666666666666667,0.0666666666666667,1.7,15746.899772042,15747.8353025,13,15746.962255,15747.022536292,15747.84110475,15749.534485167,1,0.935530458000358
102,2,5,categorization,0,bathroom,SHINEd_sun_aofnryafpsjimzsb.tif,40,0.0666666666666667,0.0666666666666667,1.81666666666667,15749.552892042,15750.310656542,9,15749.619334292,15749.686363542,15750.325650084,15752.135704667,0,0.757764500000121
102,3,5,categorization,0,bathroom,SHINEd_sun_aapitsgbtktqubfy.tif,12,0.0666666666666667,0.0666666666666667,1.23333333333333,15752.154229125,15752.879955542,13,15752.2214045,15752.281175792,15752.904529667,15754.131234042,1,0.725726416998441
102,4,5,categorization,0,bathroom,SHINEd_sun_acduarbnmmoglmiv.tif,16,0.0666666666666667,0.0666666666666667,1.4,15754.148244292,15755.298480584,9,15754.214745459,15754.276446792,15755.316068209,15756.709453375,0,1.15023629200005
102,5,5,categorization,0,bathroom,SHINEd_sun_akiytfaagpdsphgz.tif,31,0.0666666666666667,0.0666666666666667,1.03333333333333,15756.727582667,15757.908907375,9,15756.794349875,15756.860830792,15757.934471584,15758.961199292,0,1.18132470800083
102,6,5,categorization,0,kitchen,SHINEd_sun_ahdycvpopffkzzsu.tif,90,0.0666666666666667,0.0666666666666667,1.38333333333333,15758.972557709,15759.713856,13,15759.037979625,15759.103801417,15759.743754042,15761.120470584,0,0.74129829100093
102,7,5,categorization,0,kitchen,SHINEd_sun_azmutvzbxypaceni.tif,110,0.0666666666666667,0.0666666666666667,2,15761.140236875,15761.867459042,13,15761.206672625,15761.273066667,15761.896303875,15763.889672417,0,0.727222166999127
102,8,5,categorization,0,kitchen,SHINEd_sun_ajkqhtgcbgpcwrwn.tif,97,0.0666666666666667,0.0666666666666667,1.85,15763.907442417,15764.932745542,9,15763.974663667,15764.040277084,15764.946029542,15766.789412375,1,1.0253031250013
102,9,5,categorization,0,bathroom,SHINEd_sun_abjtwfukuwddzted.tif,15,0.0666666666666667,0.0666666666666667,0.816666666666667,15766.808198125,15768.46823575,13,15766.875190209,15766.9413315,15768.476960917,15769.286967167,1,1.66003762500077
102,10,5,categorization,0,bathroom,SHINEd_sun_avhrdrntsqrjzccq.tif,55,0.0666666666666667,0.0666666666666667,1.85,15769.292530667,15770.163758959,9,15769.354369667,15769.415198542,15770.167555834,15772.010934334,0,0.871228291998705
102,11,5,categorization,0,kitchen,SHINEd_sun_acxkpeoqbwcxfvip.tif,77,0.0666666666666667,0.0666666666666667,0.733333333333333,15772.029742167,15772.8223825,9,15772.096646209,15772.1627485,15772.85261,15773.579282334,1,0.792640333000236
102,12,5,categorization,0,bathroom,SHINEd_sun_aggnnqpdorgxpvce.tif,21,0.0666666666666667,0.0666666666666667,0.716666666666667,15773.585314292,15774.323436042,9,15773.647038209,15773.70816075,15774.326375792,15775.036380917,0,0.738121749998754
102,13,5,categorization,0,bathroom,SHINEd_sun_abapwbhyhkfixyex.tif,14,0.0666666666666667,0.0666666666666667,0.833333333333333,15775.042067084,15776.395668667,9,15775.103761459,15775.164775709,15776.400582375,15777.227254917,0,1.35360158300136
102,14,5,categorization,0,kitchen,SHINEd_sun_ahywdevtimnqcsln.tif,94,0.0666666666666667,0.0666666666666667,0.95,15777.232667167,15778.187780459,9,15777.294366417,15777.355297334,15778.207694125,15779.151033584,1,0.955113292000533
102,15,5,categorization,0,bathroom,SHINEd_sun_atstyziqcmkahyxk.tif,51,0.0666666666666667,0.0666666666666667,1.96666666666667,15779.156890209,15780.243463917,13,15779.218573875,15779.279635917,15780.2487285,15782.208761292,1,1.08657370800029
102,16,5,categorization,0,bathroom,SHINEd_sun_auzqhkafidnkrwmo.tif,54,0.0666666666666667,0.0666666666666667,1.86666666666667,15782.226688084,15783.09960225,9,15782.291201917,15782.359445834,15783.11532875,15784.975380917,0,0.872914166000555
102,17,5,categorization,0,kitchen,SHINEd_labelme_rykdqxenmhulbdn.tif,63,0.0666666666666667,0.0666666666666667,1.51666666666667,15784.993081,15785.941791084,13,15785.0602295,15785.126462625,15785.966283584,15787.476321875,0,0.948710083999686
102,18,5,categorization,0,bathroom,SHINEd_sun_ausgutylgojavyoq.tif,53,0.0666666666666667,0.0666666666666667,1.3,15787.491444459,15788.177541417,9,15787.5581015,15787.618701084,15788.191171042,15789.484552792,0,0.686096958001144
102,19,5,categorization,0,bathroom,SHINEd_sun_aoybiabnpadelefl.tif,41,0.0666666666666667,0.0666666666666667,1.91666666666667,15789.503217792,15790.270856709,9,15789.569532834,15789.635963917,15790.291132375,15792.201179625,0,0.767638916999204
102,20,5,categorization,0,bathroom,SHINEd_sun_ajlawzvmubibwbpy.tif,30,0.0666666666666667,0.0666666666666667,1.23333333333333,15792.219138917,15792.967117917,13,15792.28331225,15792.352096875,15792.990616042,15794.217322042,1,0.747978999999759
102,21,5,categorization,0,kitchen,SHINEd_sun_acgtpgfybqjmzeyw.tif,75,0.0666666666666667,0.0666666666666667,0.866666666666667,15794.235683,15795.123634875,13,15794.300308917,15794.368433625,15795.14123975,15796.001293084,0,0.887951874999999
102,22,5,categorization,0,bathroom,SHINEd_sun_agrwbmhcpmfuwmsg.tif,24,0.0666666666666667,0.0666666666666667,0.8,15796.018177334,15796.827333417,9,15796.084916375,15796.142419209,15796.844528167,15797.637868125,0,0.809156083001653
102,23,5,categorization,0,bathroom,SHINEd_sun_alkosphxlxwjwgjd.tif,34,0.0666666666666667,0.0666666666666667,1.51666666666667,15797.643616375,15798.763429084,9,15797.705279584,15797.766291292,15798.768363542,15800.278417584,0,1.11981270899923
102,24,5,categorization,0,kitchen,SHINEd_sun_aggjlwcdjsjcaemh.tif,86,0.0666666666666667,0.0666666666666667,1.18333333333333,15800.289071125,15802.291622959,13,15800.356015459,15800.421676542,15802.307248917,15803.483956125,0,2.00255183399895
102,25,5,categorization,0,bathroom,SHINEd_sun_apjevzvycyhuqghb.tif,43,0.0666666666666667,0.0666666666666667,1.6,15803.493427459,15804.171241875,9,15803.560612834,15803.627746042,15804.201214667,15805.794589375,0,0.677814415999819
102,26,5,categorization,0,bathroom,SHINEd_sun_aclfzgynxzxlbepz.tif,19,0.0666666666666667,0.0666666666666667,1.56666666666667,15805.812734417,15806.606045417,13,15805.879591625,15805.94555725,15806.635150667,15808.195204,1,0.793310999999449
102,27,5,categorization,0,bathroom,SHINEd_sun_afcoljnjfoxjtgja.tif,20,0.0666666666666667,0.0666666666666667,1.36666666666667,15808.2127135,15808.979514417,9,15808.276967959,15808.345551334,15809.001696875,15810.36175675,0,0.766800917001092
102,28,5,categorization,0,kitchen,SHINEd_sun_aeqdocilnnpuvuhx.tif,83,0.0666666666666667,0.0666666666666667,1.53333333333333,15810.379995375,15811.412612,13,15810.446554334,15810.51298375,15811.436604834,15812.963315125,0,1.03261662499972
102,29,5,categorization,0,bathroom,SHINEd_sun_asfwthctfqerjvxr.tif,49,0.0666666666666667,0.0666666666666667,1.4,15812.981452125,15813.694876584,13,15813.048476375,15813.114768917,15813.721232709,15815.114611125,1,0.713424459001544
102,30,5,categorization,0,kitchen,SHINEd_sun_aehawpgmrlhlvcow.tif,81,0.0666666666666667,0.0666666666666667,1.06666666666667,15815.131324417,15816.307256542,13,15815.198679875,15815.26411,15816.320244625,15817.380302,0,1.17593212500105
102,31,5,categorization,0,kitchen,SHINEd_sun_agzzivivdpnawacl.tif,89,0.0666666666666667,0.0666666666666667,1.63333333333333,15817.389234792,15818.277802959,13,15817.4541025,15817.520807042,15818.291558084,15819.91826375,0,0.888568167001722
102,32,5,categorization,0,kitchen,SHINEd_sun_aexklacwqwezaorf.tif,84,0.0666666666666667,0.0666666666666667,1.8,15819.935945334,15820.633544834,9,15820.002488709,15820.068917542,15820.658341709,15822.451709125,1,0.697599499999342
102,33,5,categorization,0,kitchen,SHINEd_sun_avszsnwsbuqfgzbn.tif,105,0.0666666666666667,0.0666666666666667,1.53333333333333,15822.47036625,15823.271368459,9,15822.53777325,15822.603041459,15823.292912542,15824.819632084,1,0.801002209000217
102,34,5,categorization,0,bathroom,SHINEd_sun_axyrejkiiaqiurjk.tif,59,0.0666666666666667,0.0666666666666667,0.766666666666667,15824.84000825,15827.139148875,9,15824.906331167,15824.972363167,15827.158850542,15827.918857917,0,2.29914062500029
102,35,5,categorization,0,bathroom,SHINEd_sun_ambriybtogmepttm.tif,36,0.0666666666666667,0.0666666666666667,1.86666666666667,15827.924545334,15828.675112209,9,15827.986263584,15828.047224875,15828.682511125,15830.542570042,0,0.750566875000004
102,36,5,categorization,0,bathroom,SHINEd_labelme_sfxiulhjbhlyiyt.tif,11,0.0666666666666667,0.0666666666666667,1.13333333333333,15830.557257084,15831.368374875,13,15830.622708334,15830.690389209,15831.397047875,15832.523772917,1,0.811117791001379
102,37,5,categorization,0,bathroom,SHINEd_sun_aqrpegblszgcoujh.tif,48,0.0666666666666667,0.0666666666666667,1.73333333333333,15832.533007334,15833.679318542,13,15832.59780875,15832.665811,15833.705715042,15835.432427125,1,1.14631120800004
102,38,5,categorization,0,kitchen,SHINEd_labelme_kxvouciolcpqplr.tif,62,0.0666666666666667,0.0666666666666667,0.766666666666667,15835.45110275,15836.326732417,13,15835.517976417,15835.583851875,15836.338844834,15837.098850959,0,0.875629666999885
102,39,5,categorization,0,kitchen,SHINEd_sun_aypmqwcualkenuoe.tif,109,0.0666666666666667,0.0666666666666667,1.85,15837.104783667,15838.251150542,13,15837.166492625,15837.227493709,15838.2626135,15840.105986667,0,1.14636687500024
102,40,5,categorization,0,kitchen,SHINEd_sun_auaiucuqpdausiva.tif,102,0.0666666666666667,0.0666666666666667,0.966666666666667,15840.124861625,15840.879586625,9,15840.191495459,15840.258085209,15840.89783975,15841.857846417,1,0.75472500000069
102,41,5,categorization,0,kitchen,SHINEd_sun_aixorpehvfykdynp.tif,95,0.0666666666666667,0.0666666666666667,1.06666666666667,15841.863752375,15842.859284875,9,15841.925524959,15841.986422667,15842.871950375,15843.931989,1,0.995532499999172
102,42,5,categorization,0,kitchen,SHINEd_sun_abdenxonkemggwsq.tif,69,0.0666666666666667,0.0666666666666667,1.38333333333333,15843.94438125,15844.716074042,9,15844.008937584,15844.07594075,15844.731848167,15846.108560625,1,0.771692792000977
102,43,5,categorization,0,kitchen,SHINEd_sun_acwjdupvyjsugpay.tif,76,0.0666666666666667,0.0666666666666667,0.766666666666667,15846.126634625,15847.056189375,9,15846.193310375,15846.259711542,15847.082579875,15847.842623542,1,0.929554750000534
102,44,5,categorization,0,kitchen,SHINEd_sun_aymvwlarqodbwuoc.tif,108,0.0666666666666667,0.0666666666666667,0.866666666666667,15847.859101209,15848.675817584,9,15847.926017125,15847.991779417,15848.693726834,15849.553731375,1,0.816716375000397
102,45,5,categorization,0,kitchen,SHINEd_sun_ahpczsiumwwocjkv.tif,92,0.0666666666666667,0.0666666666666667,1.25,15849.559473209,15850.355735709,9,15849.621309042,15849.682420792,15850.367528834,15851.610909375,1,0.796262500000012
102,46,5,categorization,0,bathroom,SHINEd_sun_alotolagknyrgtsk.tif,35,0.0666666666666667,0.0666666666666667,1.03333333333333,15851.628231667,15853.007151875,9,15851.695204084,15851.761104209,15853.036775042,15854.06348725,0,1.37892020799882
102,47,5,categorization,0,bathroom,SHINEd_sun_aunuadmjocsddsrl.tif,52,0.0666666666666667,0.0666666666666667,0.783333333333333,15854.077406834,15854.844646125,9,15854.14219175,15854.208575042,15854.865315625,15855.642036542,0,0.767239291000806
102,48,5,categorization,0,bathroom,SHINEd_sun_ahqjwnzgolcaoidx.tif,29,0.0666666666666667,0.0666666666666667,0.7,15855.658203459,15856.594849917,9,15855.725263459,15855.790658375,15856.6092415,15857.302580084,0,0.936646458001633
102,49,5,categorization,0,bathroom,SHINEd_sun_axldvoqbuvuggfmq.tif,57,0.0666666666666667,0.0666666666666667,1.75,15857.3084195,15858.266958584,13,15857.370190042,15857.431168042,15858.282812834,15860.026190292,1,0.958539084000222
102,50,5,categorization,0,kitchen,SHINEd_sun_ahspylgoovwmwvgk.tif,93,0.0666666666666667,0.0666666666666667,1.36666666666667,15860.044830709,15860.754611667,9,15860.111512375,15860.177954084,15860.784281709,15862.144316209,1,0.70978095800092
102,1,6,categorization,0,kitchen,SHINEd_sun_aunzlwrbjumxhwdj.tif,103,0.0666666666666667,0.0666666666666667,0.966666666666667,15868.689051167,15869.555255125,9,15868.751502292,15868.811676292,15869.563624959,15870.523631167,1,0.86620395799946
102,2,6,categorization,0,bathroom,SHINEd_sun_ahaulkltgpkeeemi.tif,26,0.0666666666666667,0.0666666666666667,1.73333333333333,15870.529436084,15871.275193959,13,15870.5912095,15870.652193667,15871.287289542,15873.013999709,1,0.745757874999981
102,3,6,categorization,0,bathroom,SHINEd_sun_aleqenyvunhactkl.tif,32,0.0666666666666667,0.0666666666666667,1.91666666666667,15873.03230225,15873.773012417,13,15873.099119792,15873.165145167,15873.787712709,15875.697766709,1,0.740710166999634
102,4,6,categorization,0,kitchen,SHINEd_sun_adgqasybjyktddhj.tif,78,0.0666666666666667,0.0666666666666667,0.766666666666667,15875.715903917,15877.955195667,13,15875.78323275,15875.848666375,15877.967919875,15878.727925459,0,2.23929175000012
102,5,6,categorization,0,bathroom,SHINEd_sun_apkruvsevgegsdwp.tif,44,0.0666666666666667,0.0666666666666667,0.916666666666667,15878.733339834,15879.371352042,9,15878.795136542,15878.856059792,15879.3746735,15880.284677417,0,0.638012208000873
102,6,6,categorization,0,bathroom,SHINEd_sun_agyqfjcfkdcydepw.tif,25,0.0666666666666667,0.0666666666666667,1.18333333333333,15880.289425625,15880.97154425,9,15880.351232375,15880.412112834,15880.980470792,15882.157174167,0,0.68211862499993
102,7,6,categorization,0,kitchen,SHINEd_sun_agubuxuukhzyzpdp.tif,88,0.0666666666666667,0.0666666666666667,1.8,15882.166133084,15882.878077084,9,15882.232939,15882.2932375,15882.899887667,15884.693270084,1,0.711944000000585
102,8,6,categorization,0,bathroom,SHINEd_sun_aspsyogrekjtfozg.tif,50,0.0666666666666667,0.0666666666666667,0.883333333333333,15884.71178025,15885.988621125,13,15884.778475834,15884.844602959,15886.020387084,15886.897059917,1,1.27684087499983
102,9,6,categorization,0,kitchen,SHINEd_sun_abrcnpqqhmjwekyf.tif,73,0.0666666666666667,0.0666666666666667,1.83333333333333,15886.90447975,15889.003027417,9,15886.966377792,15887.027397334,15889.013334625,15890.840048417,1,2.09854766700118
102,10,6,categorization,0,kitchen,SHINEd_sun_aarfiyshqohlwkmo.tif,67,0.0666666666666667,0.0666666666666667,1.76666666666667,15890.859150584,15891.605694709,9,15890.925922292,15890.992127584,15891.632035042,15893.392088167,1,0.746544125000582
102,11,6,categorization,0,kitchen,SHINEd_sun_agorklincwxrdtga.tif,87,0.0666666666666667,0.0666666666666667,0.983333333333333,15893.414097209,15894.097197,9,15893.481556792,15893.547571209,15894.121663459,15895.09833725,1,0.683099790998313
102,12,6,categorization,0,kitchen,SHINEd_sun_afuyedyxivkhecmu.tif,85,0.0666666666666667,0.0666666666666667,0.883333333333333,15895.104448792,15895.938938209,9,15895.166223625,15895.2272065,15895.945690292,15896.822362834,1,0.834489416998622
102,13,6,categorization,0,kitchen,SHINEd_sun_aegoxogugdkwpmpj.tif,80,0.0666666666666667,0.0666666666666667,0.85,15896.827511709,15897.531452459,9,15896.889187167,15896.9502525,15897.535725834,15898.379063875,1,0.703940749999674
102,14,6,categorization,0,kitchen,SHINEd_sun_aqeaevwwwjoqhzvl.tif,101,0.0666666666666667,0.0666666666666667,0.733333333333333,15898.384013209,15899.427684,9,15898.44583475,15898.507141334,15899.442891459,15900.169564209,1,1.04367079099939
102,15,6,categorization,0,kitchen,SHINEd_sun_abdxkyyxwfskuaqb.tif,70,0.0666666666666667,0.0666666666666667,1.88333333333333,15900.175321959,15901.131122084,9,15900.237152792,15900.297952917,15901.150337375,15903.027050875,1,0.955800125000678
102,16,6,categorization,0,bathroom,SHINEd_sun_axxbkopsgyouuebh.tif,58,0.0666666666666667,0.0666666666666667,0.816666666666667,15903.045065209,15903.776331084,13,15903.111886084,15903.178079084,15903.801385834,15904.611391125,1,0.731265874999735
102,17,6,categorization,0,kitchen,SHINEd_sun_ahljzhgcdpomplvg.tif,91,0.0666666666666667,0.0666666666666667,1.9,15904.617292459,15905.251138875,13,15904.679017834,15904.739900875,15905.258555917,15907.151941334,0,0.633846416001688
102,18,6,categorization,0,bathroom,SHINEd_sun_azqyogdvyhahyram.tif,60,0.0666666666666667,0.0666666666666667,0.983333333333333,15907.167623084,15907.931744334,13,15907.234395042,15907.30014425,15907.95664425,15908.933316625,1,0.764121250000244
102,19,6,categorization,0,bathroom,SHINEd_sun_anhioqovhscjqqwb.tif,38,0.0666666666666667,0.0666666666666667,0.75,15908.939196792,15909.627564875,13,15909.001027167,15909.061862709,15909.646953459,15910.390290917,1,0.688368082999659
102,20,6,categorization,0,bathroom,SHINEd_sun_acegryoqftbzowsg.tif,17,0.0666666666666667,0.0666666666666667,1.6,15910.39551,15911.507261792,13,15910.457306709,15910.518489125,15911.520493125,15913.113860834,1,1.11175179199927
102,21,6,categorization,0,kitchen,SHINEd_sun_admlmbcdswaszruo.tif,79,0.0666666666666667,0.0666666666666667,1.58333333333333,15913.131662834,15914.430092,9,15913.198839542,15913.264443167,15914.456229834,15916.032942125,1,1.29842916600137
102,22,6,categorization,0,bathroom,SHINEd_sun_ahcvzmoyaycdoftf.tif,27,0.0666666666666667,0.0666666666666667,1.11666666666667,15916.050764042,15916.931078167,13,15916.117414584,15916.183599542,15916.957138917,15918.067179209,1,0.880314124999131
102,23,6,categorization,0,kitchen,SHINEd_sun_aaxxjlsuzvqlgylf.tif,68,0.0666666666666667,0.0666666666666667,1.53333333333333,15918.077382417,15918.709769625,9,15918.142457917,15918.210038875,15918.73359675,15920.260277334,1,0.632387208001091
102,24,6,categorization,0,bathroom,SHINEd_sun_acgyywnybuveqsro.tif,18,0.0666666666666667,0.0666666666666667,1.48333333333333,15920.27078825,15921.165654667,13,15920.335554667,15920.403680709,15921.193484334,15922.670189459,1,0.89486641700023
102,25,6,categorization,0,kitchen,SHINEd_sun_aenotlpyftoioydp.tif,82,0.0666666666666667,0.0666666666666667,1.1,15922.688996917,15923.45106425,9,15922.755916042,15922.822560209,15923.47869675,15924.572089292,1,0.762067333000232
102,26,6,categorization,0,kitchen,SHINEd_sun_auticobqsbwgoppi.tif,104,0.0666666666666667,0.0666666666666667,0.933333333333333,15924.585690709,15925.535791792,9,15924.650608834,15924.718637,15925.558927792,15926.485634625,1,0.950101082999026
102,27,6,categorization,0,kitchen,SHINEd_sun_abftihopvusyfakt.tif,71,0.0666666666666667,0.0666666666666667,0.816666666666667,15926.502960625,15927.283311792,9,15926.565674917,15926.626195834,15927.294797125,15928.104804209,1,0.780351167000845
102,28,6,categorization,0,kitchen,SHINEd_sun_acfmftudsenhrfhy.tif,74,0.0666666666666667,0.0666666666666667,1.78333333333333,15928.11053025,15928.810673334,9,15928.172173,15928.23326275,15928.818586542,15930.595304459,1,0.700143083999137
102,29,6,categorization,0,kitchen,SHINEd_sun_aadbddgrdsjugojn.tif,64,0.0666666666666667,0.0666666666666667,0.766666666666667,15930.61318375,15931.599610042,9,15930.679601584,15930.745064917,15931.618071417,15932.378075334,1,0.986426292000033
102,30,6,categorization,0,kitchen,SHINEd_sun_ajcbwwvdlsvjyzje.tif,96,0.0666666666666667,0.0666666666666667,1.45,15932.383290917,15933.211186167,13,15932.445021084,15932.506376,15933.224754209,15934.668136334,0,0.827895250000438
102,31,6,categorization,0,kitchen,SHINEd_sun_abpwyqmlzafvklqo.tif,72,0.0666666666666667,0.0666666666666667,0.75,15934.686548375,15935.947292125,9,15934.75350525,15934.821042084,15935.981184917,15936.724523292,1,1.26074374999916
102,32,6,categorization,0,kitchen,SHINEd_sun_amjjdeyrggfqgmom.tif,100,0.0666666666666667,0.0666666666666667,1.36666666666667,15936.730089917,15937.930946417,9,15936.791807125,15936.852787417,15937.938088834,15939.298121917,1,1.20085649999965
102,33,6,categorization,0,bathroom,SHINEd_sun_agguqiubmwhqqunb.tif,22,0.0666666666666667,0.0666666666666667,0.75,15939.315047625,15940.254380667,9,15939.382116917,15939.448121334,15940.269349292,15941.012703917,0,0.939333042000726
102,34,6,categorization,0,bathroom,SHINEd_sun_aljolscmmzydegqp.tif,33,0.0666666666666667,0.0666666666666667,0.783333333333333,15941.021172,15941.842822334,13,15941.083149042,15941.143833709,15941.862300917,15942.638974959,1,0.82165033399906
102,35,6,categorization,0,kitchen,SHINEd_sun_axyyrmzcupyhlivc.tif,107,0.0666666666666667,0.0666666666666667,1.11666666666667,15942.64476275,15943.450971334,9,15942.706571459,15942.767500959,15943.469779167,15944.579828625,1,0.806208583999251
102,36,6,categorization,0,kitchen,SHINEd_sun_akcjzhbbjlbogpdi.tif,99,0.0666666666666667,0.0666666666666667,0.766666666666667,15944.590722042,15945.892207042,13,15944.655581625,15944.723443209,15945.914561167,15946.674567417,0,1.30148499999996
102,37,6,categorization,0,bathroom,SHINEd_sun_apeeialkgkuxddgh.tif,42,0.0666666666666667,0.0666666666666667,0.716666666666667,15946.680854209,15947.275188417,13,15946.742582459,15946.803607125,15947.288757625,15947.998762125,1,0.594334207999054
102,38,6,categorization,0,bathroom,SHINEd_sun_aavhrsfjbserjtht.tif,13,0.0666666666666667,0.0666666666666667,1.33333333333333,15948.004496875,15949.346695709,9,15948.06631625,15948.127147792,15949.363183625,15950.689907834,0,1.34219883399965
102,39,6,categorization,0,kitchen,SHINEd_sun_aamedkxepzlwuxes.tif,65,0.0666666666666667,0.0666666666666667,1.75,15950.708021042,15951.526822084,9,15950.774420584,15950.841003959,15951.547318375,15953.29070875,1,0.818801041999905
102,40,6,categorization,0,bathroom,SHINEd_sun_apmqjbnwghzuhhzh.tif,46,0.0666666666666667,0.0666666666666667,1.13333333333333,15953.308835667,15954.124711,13,15953.375623792,15953.441993125,15954.14868875,15955.275388417,1,0.815875333000804
102,41,6,categorization,0,bathroom,SHINEd_sun_apynckhmoftszqoq.tif,47,0.0666666666666667,0.0666666666666667,1.63333333333333,15955.285220667,15956.075318334,9,15955.349778875,15955.418300084,15956.091106625,15957.717811084,0,0.790097667000737
102,42,6,categorization,0,bathroom,SHINEd_sun_aghyqhbptboemmoq.tif,23,0.0666666666666667,0.0666666666666667,1.43333333333333,15957.730412459,15958.600810292,13,15957.797215667,15957.862699042,15958.619250459,15960.045971542,1,0.870397833001334
102,43,6,categorization,0,bathroom,SHINEd_sun_awnqiikzaispgmwo.tif,56,0.0666666666666667,0.0666666666666667,1.83333333333333,15960.064463792,15960.837616792,13,15960.131195375,15960.197556084,15960.853510834,15962.680212667,1,0.773153000000093
102,44,6,categorization,0,bathroom,SHINEd_sun_ahijqszoswveeyji.tif,28,0.0666666666666667,0.0666666666666667,1.93333333333333,15962.6983035,15963.671176125,13,15962.765313209,15962.831309709,15963.687176459,15965.613890459,1,0.972872625001401
102,45,6,categorization,0,kitchen,SHINEd_sun_akchetnepxlcxhsu.tif,98,0.0666666666666667,0.0666666666666667,1.26666666666667,15965.635138125,15966.291538584,13,15965.702051167,15965.768319625,15966.306793209,15967.566843375,0,0.656400458999997
102,46,6,categorization,0,bathroom,SHINEd_sun_apkxzenqapsujocq.tif,45,0.0666666666666667,0.0666666666666667,1.86666666666667,15967.583598667,15968.277259584,13,15967.651001792,15967.716399917,15968.305297584,15970.165336542,1,0.693660916998851
102,47,6,categorization,0,kitchen,SHINEd_sun_aapllqyqlykszopd.tif,66,0.0666666666666667,0.0666666666666667,1.41666666666667,15970.182760375,15971.165374875,13,15970.249853625,15970.313822959,15971.18784325,15972.597887209,0,0.982614499998817
102,48,6,categorization,0,bathroom,SHINEd_sun_anryaplzeujmzfkd.tif,39,0.0666666666666667,0.0666666666666667,1.11666666666667,15972.615070125,15973.474534209,13,15972.682419667,15972.748351959,15973.505562834,15974.615606709,1,0.859464083998319
102,49,6,categorization,0,kitchen,SHINEd_sun_awcpdzzznmweyyhv.tif,106,0.0666666666666667,0.0666666666666667,1.8,15974.62726,15975.278762459,13,15974.692114167,15974.760157375,15975.300508334,15977.09389,0,0.651502459000767
102,50,6,categorization,0,kitchen,SHINEd_labelme_brsyyvweiuaazfr.tif,61,0.0666666666666667,0.0666666666666667,1.25,15977.113429834,15977.895946959,13,15977.18100875,15977.246532917,15977.920127209,15979.163514209,0,0.782517125000595
102,1,7,categorization,0,kitchen,SHINEd_sun_adgqasybjyktddhj.tif,78,0.0666666666666667,0.0666666666666667,0.883333333333333,15986.511138917,15987.659061459,9,15986.573752459,15986.63394325,15987.669851584,15988.546523792,1,1.14792254200074
102,2,7,categorization,0,bathroom,SHINEd_sun_apynckhmoftszqoq.tif,47,0.0666666666666667,0.0666666666666667,1.03333333333333,15988.551059959,15989.226416834,13,15988.6128535,15988.673791334,15989.24253125,15990.2692385,1,0.675356875000944
102,3,7,categorization,0,kitchen,SHINEd_sun_aehawpgmrlhlvcow.tif,81,0.0666666666666667,0.0666666666666667,1.06666666666667,15990.277643792,15991.026001959,9,15990.341467459,15990.408989,15991.049021417,15992.10906925,1,0.748358167000333
102,4,7,categorization,0,kitchen,SHINEd_labelme_kxvouciolcpqplr.tif,62,0.0666666666666667,0.0666666666666667,0.833333333333333,15992.125565459,15992.915327084,9,15992.192206917,15992.258415959,15992.9274895,15993.754161,1,0.789761624999301
102,5,7,categorization,0,kitchen,SHINEd_sun_aixorpehvfykdynp.tif,95,0.0666666666666667,0.0666666666666667,0.716666666666667,15993.759529792,15995.291112584,13,15993.821262167,15993.882150459,15995.301496417,15996.011502084,0,1.53158279200034
102,6,7,categorization,0,bathroom,SHINEd_sun_abjtwfukuwddzted.tif,15,0.0666666666666667,0.0666666666666667,0.733333333333333,15996.016214625,15997.683256375,13,15996.077842209,15996.138935542,15997.691347042,15998.418018625,1,1.66704174999904
102,7,7,categorization,0,kitchen,SHINEd_sun_abdxkyyxwfskuaqb.tif,70,0.0666666666666667,0.0666666666666667,1.38333333333333,15998.422837667,15999.387080667,9,15998.484651084,15998.545580167,15999.39762675,16000.774349084,1,0.964243000000351
102,8,7,categorization,0,bathroom,SHINEd_sun_aavhrsfjbserjtht.tif,13,0.0666666666666667,0.0666666666666667,0.9,16000.79197025,16001.560348959,9,16000.8586105,16000.924863625,16001.581772209,16002.475154042,0,0.76837870899908
102,9,7,categorization,0,bathroom,SHINEd_sun_aofnryafpsjimzsb.tif,40,0.0666666666666667,0.0666666666666667,0.816666666666667,16002.482541125,16003.490851375,9,16002.544410584,16002.605234417,16003.50758775,16004.317591667,0,1.00831024999934
102,10,7,categorization,0,kitchen,SHINEd_sun_avszsnwsbuqfgzbn.tif,105,0.0666666666666667,0.0666666666666667,0.85,16004.322583542,16004.938547417,9,16004.384339792,16004.445256459,16004.947165542,16005.790502334,1,0.615963874999579
102,11,7,categorization,0,kitchen,SHINEd_sun_agorklincwxrdtga.tif,87,0.0666666666666667,0.0666666666666667,1.6,16005.795286917,16006.755000959,9,16005.856961625,16005.917928125,16006.769893375,16008.363270209,1,0.959714041999177
102,12,7,categorization,0,kitchen,SHINEd_sun_aapllqyqlykszopd.tif,66,0.0666666666666667,0.0666666666666667,1.75,16008.3771115,16009.23511625,13,16008.441224292,16008.508921,16009.265257375,16011.008627417,0,0.858004749999964
102,13,7,categorization,0,bathroom,SHINEd_sun_ausgutylgojavyoq.tif,53,0.0666666666666667,0.0666666666666667,1.1,16011.027874334,16011.776234875,13,16011.095146959,16011.1603875,16011.800498375,16012.8938895,1,0.748360540999784
102,14,7,categorization,0,bathroom,SHINEd_sun_aunuadmjocsddsrl.tif,52,0.0666666666666667,0.0666666666666667,1.46666666666667,16012.90401575,16013.83003175,13,16012.969307042,16013.036943334,16013.842431667,16015.302465667,1,0.926015999999436
102,15,7,categorization,0,kitchen,SHINEd_sun_auaiucuqpdausiva.tif,102,0.0666666666666667,0.0666666666666667,1.25,16015.323132042,16016.31767675,13,16015.390531584,16015.456304375,16016.327708292,16017.571092667,0,0.994544708000831
102,16,7,categorization,0,kitchen,SHINEd_sun_ahdycvpopffkzzsu.tif,90,0.0666666666666667,0.0666666666666667,1.13333333333333,16017.591156084,16018.628074417,9,16017.658704834,16017.724054834,16018.647762667,16019.774471,1,1.03691833300036
102,17,7,categorization,0,kitchen,SHINEd_sun_ajkqhtgcbgpcwrwn.tif,97,0.0666666666666667,0.0666666666666667,1.33333333333333,16019.784046834,16020.4221895,13,16019.849235792,16019.918660167,16020.442485125,16021.769186125,0,0.638142665999112
102,18,7,categorization,0,kitchen,SHINEd_sun_abdenxonkemggwsq.tif,69,0.0666666666666667,0.0666666666666667,1.86666666666667,16021.780248459,16022.42717675,9,16021.845695792,16021.91355075,16022.454019459,16024.314060667,1,0.646928291000222
102,19,7,categorization,0,kitchen,SHINEd_sun_agzzivivdpnawacl.tif,89,0.0666666666666667,0.0666666666666667,1.58333333333333,16024.324620584,16025.186306459,13,16024.391972667,16024.457746459,16025.214852167,16026.791557584,0,0.861685874999239
102,20,7,categorization,0,bathroom,SHINEd_sun_ambriybtogmepttm.tif,36,0.0666666666666667,0.0666666666666667,1.05,16026.807498709,16027.798645084,13,16026.874476292,16026.94039,16027.812134917,16028.855515459,1,0.991146374999516
102,21,7,categorization,0,bathroom,SHINEd_sun_akiytfaagpdsphgz.tif,31,0.0666666666666667,0.0666666666666667,0.9,16028.869438292,16030.341917167,13,16028.934861792,16029.000688417,16030.35956025,16031.252899042,1,1.47247887499907
102,22,7,categorization,0,kitchen,SHINEd_sun_aarfiyshqohlwkmo.tif,67,0.0666666666666667,0.0666666666666667,0.7,16031.259031834,16031.875175084,9,16031.320910042,16031.381828375,16031.883502375,16032.576839959,1,0.616143249999368
102,23,7,categorization,0,bathroom,SHINEd_sun_aspsyogrekjtfozg.tif,50,0.0666666666666667,0.0666666666666667,0.933333333333333,16032.58151,16033.210833792,13,16032.643278084,16032.704188584,16033.22273825,16034.149410167,1,0.629323791999923
102,24,7,categorization,0,bathroom,SHINEd_sun_aapitsgbtktqubfy.tif,12,0.0666666666666667,0.0666666666666667,1.95,16034.155055042,16034.810361334,9,16034.216779292,16034.277722209,16034.829556042,16036.772944417,0,0.655306292001114
102,25,7,categorization,0,bathroom,SHINEd_sun_aleqenyvunhactkl.tif,32,0.0666666666666667,0.0666666666666667,1.06666666666667,16036.791101209,16038.162694167,9,16036.858012167,16036.924448459,16038.177271292,16039.237309167,0,1.37159295799938
102,26,7,categorization,0,kitchen,SHINEd_labelme_brsyyvweiuaazfr.tif,61,0.0666666666666667,0.0666666666666667,1.2,16039.247196875,16040.078409417,9,16039.312003,16039.379291959,16040.10277,16041.296140792,1,0.831212541999776
102,27,7,categorization,0,bathroom,SHINEd_sun_aoybiabnpadelefl.tif,41,0.0666666666666667,0.0666666666666667,0.75,16041.308910292,16042.554160667,9,16041.373855167,16041.440253125,16042.582614334,16043.32598475,0,1.24525037499916
102,28,7,categorization,0,bathroom,SHINEd_sun_apeeialkgkuxddgh.tif,42,0.0666666666666667,0.0666666666666667,0.816666666666667,16043.340463792,16044.050978792,13,16043.40396525,16043.463606417,16044.06554725,16044.875552625,1,0.710515000000669
102,29,7,categorization,0,kitchen,SHINEd_sun_aunzlwrbjumxhwdj.tif,103,0.0666666666666667,0.0666666666666667,1.96666666666667,16044.880593459,16045.706371917,9,16044.942487459,16045.003254667,16045.721932834,16047.6819705,1,0.825778458000059
102,30,7,categorization,0,kitchen,SHINEd_sun_acwjdupvyjsugpay.tif,76,0.0666666666666667,0.0666666666666667,1.2,16047.700935834,16048.522271709,9,16047.7676005,16047.834240209,16048.541377709,16049.734746459,1,0.821335874999932
102,31,7,categorization,0,bathroom,SHINEd_sun_asfwthctfqerjvxr.tif,49,0.0666666666666667,0.0666666666666667,0.883333333333333,16049.747124959,16050.80172375,13,16049.815638,16049.880002,16050.819953125,16051.696625542,1,1.0545987910009
102,32,7,categorization,0,kitchen,SHINEd_sun_akchetnepxlcxhsu.tif,98,0.0666666666666667,0.0666666666666667,1.33333333333333,16051.703323834,16052.690370667,13,16051.765137667,16051.826101667,16052.694940125,16054.021645917,0,0.987046833000932
102,33,7,categorization,0,kitchen,SHINEd_sun_aexklacwqwezaorf.tif,84,0.0666666666666667,0.0666666666666667,1.45,16054.038652792,16054.890240334,9,16054.105708417,16054.171305084,16054.91116575,16056.354542209,1,0.851587541999834
102,34,7,categorization,0,kitchen,SHINEd_sun_acgtpgfybqjmzeyw.tif,75,0.0666666666666667,0.0666666666666667,1.15,16056.373695209,16057.331325125,9,16056.440274542,16056.507106959,16057.345993959,16058.489365417,1,0.95762991599986
102,35,7,categorization,0,bathroom,SHINEd_sun_agyqfjcfkdcydepw.tif,25,0.0666666666666667,0.0666666666666667,0.966666666666667,16058.4987635,16059.426226667,9,16058.563082125,16058.631972834,16059.455611209,16060.415619459,0,0.927463166999587
102,36,7,categorization,0,kitchen,SHINEd_sun_aamedkxepzlwuxes.tif,65,0.0666666666666667,0.0666666666666667,1.45,16060.421767167,16062.578893584,9,16060.483619084,16060.544570667,16062.59689375,16064.040269459,1,2.15712641699974
102,37,7,categorization,0,bathroom,SHINEd_sun_axyrejkiiaqiurjk.tif,59,0.0666666666666667,0.0666666666666667,0.8,16064.0575005,16065.348584917,9,16064.124304125,16064.190580917,16065.365866,16066.159204875,0,1.29108441700009
102,38,7,categorization,0,bathroom,SHINEd_sun_azqyogdvyhahyram.tif,60,0.0666666666666667,0.0666666666666667,1.45,16066.164818375,16067.6587475,9,16066.226912125,16066.287579709,16067.673543917,16069.11694125,0,1.49392912499934
102,39,7,categorization,0,bathroom,SHINEd_sun_aghyqhbptboemmoq.tif,23,0.0666666666666667,0.0666666666666667,1.1,16069.135442167,16069.980795167,13,16069.202456625,16069.268605792,16070.00851625,16071.101888417,1,0.845353000000614
102,40,7,categorization,0,kitchen,SHINEd_sun_azmutvzbxypaceni.tif,110,0.0666666666666667,0.0666666666666667,1.16666666666667,16071.111369459,16071.920085542,13,16071.176540792,16071.244517334,16071.933429334,16073.093485625,0,0.808716083000036
102,41,7,categorization,0,kitchen,SHINEd_sun_aenotlpyftoioydp.tif,82,0.0666666666666667,0.0666666666666667,1.31666666666667,16073.107733625,16073.906967167,9,16073.169636709,16073.230572667,16073.915787709,16075.225860709,1,0.799233542000366
102,42,7,categorization,0,bathroom,SHINEd_sun_aclfzgynxzxlbepz.tif,19,0.0666666666666667,0.0666666666666667,1.68333333333333,16075.240814834,16076.069582709,13,16075.3075015,16075.373790042,16076.096868375,16077.773591834,1,0.828767875000267
102,43,7,categorization,0,bathroom,SHINEd_sun_axldvoqbuvuggfmq.tif,57,0.0666666666666667,0.0666666666666667,0.966666666666667,16077.787883625,16078.491453417,9,16077.854572167,16077.920864417,16078.510298,16079.470304292,0,0.703569792000053
102,44,7,categorization,0,bathroom,SHINEd_sun_atstyziqcmkahyxk.tif,51,0.0666666666666667,0.0666666666666667,1.4,16079.476155709,16080.170959584,13,16079.537903459,16079.59904775,16080.184216125,16081.577606334,1,0.694803874999707
102,45,7,categorization,0,bathroom,SHINEd_sun_ajlawzvmubibwbpy.tif,30,0.0666666666666667,0.0666666666666667,0.783333333333333,16081.596512292,16082.5806085,9,16081.663328875,16081.729827334,16082.60305375,16083.37972525,0,0.984096207999755
102,46,7,categorization,0,kitchen,SHINEd_sun_aegoxogugdkwpmpj.tif,80,0.0666666666666667,0.0666666666666667,1.08333333333333,16083.38633375,16084.098510584,13,16083.44799725,16083.509084084,16084.1111145,16085.187841125,0,0.712176834000275
102,47,7,categorization,0,kitchen,SHINEd_sun_ajcbwwvdlsvjyzje.tif,96,0.0666666666666667,0.0666666666666667,1.43333333333333,16085.199242084,16086.07589475,13,16085.264007667,16085.332037959,16086.1049955,16087.531696542,0,0.876652666000155
102,48,7,categorization,0,kitchen,SHINEd_sun_abrcnpqqhmjwekyf.tif,73,0.0666666666666667,0.0666666666666667,1.75,16087.546803042,16088.631602542,9,16087.61466975,16087.679723209,16088.653315917,16090.396708084,1,1.08479950000037
102,49,7,categorization,0,bathroom,SHINEd_sun_awnqiikzaispgmwo.tif,56,0.0666666666666667,0.0666666666666667,1.21666666666667,16090.410190875,16091.592503125,13,16090.478483167,16090.542974084,16091.616059292,16092.826120209,1,1.1823122500009
102,50,7,categorization,0,bathroom,SHINEd_sun_avhrdrntsqrjzccq.tif,55,0.0666666666666667,0.0666666666666667,1.31666666666667,16092.844610709,16093.575778375,9,16092.911353,16092.9774015,16093.600594917,16094.910649084,0,0.731167665999237
102,1,8,categorization,0,kitchen,SHINEd_sun_auticobqsbwgoppi.tif,104,0.0666666666666667,0.0666666666666667,1.18333333333333,16103.138152834,16104.146334667,9,16103.200775167,16103.260859542,16104.163040125,16105.33974075,1,1.00818183299998
102,2,8,categorization,0,kitchen,SHINEd_sun_aaxxjlsuzvqlgylf.tif,68,0.0666666666666667,0.0666666666666667,0.983333333333333,16105.349721709,16106.300996792,13,16105.417539084,16105.482910875,16106.320657167,16107.29733075,0,0.951275082999928
102,3,8,categorization,0,kitchen,SHINEd_sun_ahspylgoovwmwvgk.tif,93,0.0666666666666667,0.0666666666666667,1.65,16107.303389584,16108.770696167,9,16107.365240375,16107.426051959,16108.778369875,16110.421754834,1,1.4673065829993
102,4,8,categorization,0,bathroom,SHINEd_sun_acegryoqftbzowsg.tif,17,0.0666666666666667,0.0666666666666667,1.23333333333333,16110.440610542,16111.270700334,9,16110.507904417,16110.573813459,16111.297213,16112.52393375,0,0.830089791999853
102,5,8,categorization,0,bathroom,SHINEd_sun_amzlamotzwfkwjco.tif,37,0.0666666666666667,0.0666666666666667,0.916666666666667,16112.542243917,16113.549184709,13,16112.609465584,16112.675509625,16113.565452959,16114.475459459,1,1.00694079200002
102,6,8,categorization,0,kitchen,SHINEd_sun_aqeaevwwwjoqhzvl.tif,101,0.0666666666666667,0.0666666666666667,1.56666666666667,16114.481480792,16115.353877834,13,16114.543374375,16114.604044334,16115.372851625,16116.9328965,0,0.872397042001467
102,7,8,categorization,0,bathroom,SHINEd_sun_agguqiubmwhqqunb.tif,22,0.0666666666666667,0.0666666666666667,1.63333333333333,16116.951085,16117.604525709,9,16117.017571125,16117.0840245,16117.623800375,16119.250515417,0,0.653440709000279
102,8,8,categorization,0,kitchen,SHINEd_sun_acxkpeoqbwcxfvip.tif,77,0.0666666666666667,0.0666666666666667,1.1,16119.269177584,16120.166000334,13,16119.336128917,16119.402352292,16120.192733375,16121.286107834,0,0.896822750000865
102,9,8,categorization,0,kitchen,SHINEd_sun_aggjlwcdjsjcaemh.tif,86,0.0666666666666667,0.0666666666666667,1.38333333333333,16121.297086084,16122.26803525,13,16121.36200425,16121.429825584,16122.284720292,16123.661421,0,0.970949165999627
102,10,8,categorization,0,bathroom,SHINEd_sun_anhioqovhscjqqwb.tif,38,0.0666666666666667,0.0666666666666667,0.766666666666667,16123.672290292,16124.516803917,13,16123.739731542,16123.805267792,16124.545485417,16125.305519042,1,0.844513625001127
102,11,8,categorization,0,bathroom,SHINEd_sun_alotolagknyrgtsk.tif,35,0.0666666666666667,0.0666666666666667,1.45,16125.322253417,16125.937719625,9,16125.385096792,16125.445125042,16125.946862584,16127.390247084,0,0.615466208000726
102,12,8,categorization,0,bathroom,SHINEd_sun_acduarbnmmoglmiv.tif,16,0.0666666666666667,0.0666666666666667,0.983333333333333,16127.404654084,16128.070029084,13,16127.471381,16127.537614167,16128.094323875,16129.070996834,1,0.665374999998676
102,13,8,categorization,0,bathroom,SHINEd_sun_apmqjbnwghzuhhzh.tif,46,0.0666666666666667,0.0666666666666667,0.716666666666667,16129.076804959,16129.746178292,13,16129.138448625,16129.199502834,16129.751533834,16130.461538084,1,0.669373332999385
102,14,8,categorization,0,bathroom,SHINEd_sun_anryaplzeujmzfkd.tif,39,0.0666666666666667,0.0666666666666667,1.41666666666667,16130.466585084,16131.562186542,13,16130.528311875,16130.5891945,16131.574573917,16132.984607917,1,1.0956014580006
102,15,8,categorization,0,bathroom,SHINEd_sun_acgyywnybuveqsro.tif,18,0.0666666666666667,0.0666666666666667,1.21666666666667,16132.99871,16133.74262175,13,16133.067047334,16133.131292042,16133.771528042,16134.981581292,1,0.743911749999825
102,16,8,categorization,0,kitchen,SHINEd_sun_akcjzhbbjlbogpdi.tif,99,0.0666666666666667,0.0666666666666667,1.61666666666667,16134.998868084,16135.612392125,9,16135.065596125,16135.131636625,16135.638431417,16137.248488,1,0.613524041000346
102,17,8,categorization,0,kitchen,SHINEd_sun_amjjdeyrggfqgmom.tif,100,0.0666666666666667,0.0666666666666667,0.783333333333333,16137.266476667,16138.168282959,9,16137.333151709,16137.399091542,16138.191212709,16138.96791925,1,0.901806292000401
102,18,8,categorization,0,bathroom,SHINEd_sun_abapwbhyhkfixyex.tif,14,0.0666666666666667,0.0666666666666667,1.98333333333333,16138.97518525,16139.881753125,9,16139.036873334,16139.097870584,16139.900452209,16141.877154334,0,0.906567875001201
102,19,8,categorization,0,bathroom,SHINEd_sun_auzqhkafidnkrwmo.tif,54,0.0666666666666667,0.0666666666666667,0.983333333333333,16141.892798709,16142.806385167,13,16141.959759417,16142.025852792,16142.832652375,16143.809325542,1,0.913586458000282
102,20,8,categorization,0,bathroom,SHINEd_sun_ahcvzmoyaycdoftf.tif,27,0.0666666666666667,0.0666666666666667,0.8,16143.815129209,16144.506343125,13,16143.876944834,16143.93786775,16144.523183792,16145.316523542,1,0.691213915999469
102,21,8,categorization,0,kitchen,SHINEd_sun_aeqdocilnnpuvuhx.tif,83,0.0666666666666667,0.0666666666666667,0.733333333333333,16145.321667167,16146.090353334,9,16145.383373209,16145.44438475,16146.096303959,16146.822977375,1,0.768686167000851
102,22,8,categorization,0,kitchen,SHINEd_sun_awcpdzzznmweyyhv.tif,106,0.0666666666666667,0.0666666666666667,0.966666666666667,16146.828402584,16147.70673375,13,16146.890107667,16146.951135167,16147.719839959,16148.679843875,0,0.878331165999043
102,23,8,categorization,0,kitchen,SHINEd_sun_aadbddgrdsjugojn.tif,64,0.0666666666666667,0.0666666666666667,0.866666666666667,16148.686219584,16149.554169959,9,16148.747952375,16148.808953459,16149.561076375,16150.421080209,1,0.867950374999054
102,24,8,categorization,0,bathroom,SHINEd_sun_aggnnqpdorgxpvce.tif,21,0.0666666666666667,0.0666666666666667,1.23333333333333,16150.426255959,16151.146556209,13,16150.487911042,16150.548931375,16151.150709542,16152.377411667,1,0.720300249999127
102,25,8,categorization,0,bathroom,SHINEd_sun_apjevzvycyhuqghb.tif,43,0.0666666666666667,0.0666666666666667,1.9,16152.393550167,16153.405858959,13,16152.460591584,16152.526456917,16153.433769417,16155.327147167,1,1.01230879200011
102,26,8,categorization,0,kitchen,SHINEd_sun_aypmqwcualkenuoe.tif,109,0.0666666666666667,0.0666666666666667,0.866666666666667,16155.344996334,16156.382511042,13,16155.4121,16155.478143417,16156.401419584,16157.261424709,0,1.03751470799943
102,27,8,categorization,0,kitchen,SHINEd_sun_ahywdevtimnqcsln.tif,94,0.0666666666666667,0.0666666666666667,0.966666666666667,16157.2672395,16158.0423885,13,16157.329125459,16157.389939709,16158.058120667,16159.018125709,0,0.775148999999146
102,28,8,categorization,0,kitchen,SHINEd_sun_ahpczsiumwwocjkv.tif,92,0.0666666666666667,0.0666666666666667,0.916666666666667,16159.023250292,16160.370643084,13,16159.084948334,16159.145967084,16160.381573042,16161.291577167,0,1.34739279199857
102,29,8,categorization,0,kitchen,SHINEd_sun_agubuxuukhzyzpdp.tif,88,0.0666666666666667,0.0666666666666667,0.916666666666667,16161.296157209,16162.16186125,13,16161.358048834,16161.418607375,16162.170927375,16163.080932209,0,0.865704040999844
102,30,8,categorization,0,kitchen,SHINEd_sun_ahljzhgcdpomplvg.tif,91,0.0666666666666667,0.0666666666666667,1.4,16163.086370292,16163.905532209,13,16163.1480075,16163.209070042,16163.911098584,16165.304480334,0,0.819161917001111
102,31,8,categorization,0,bathroom,SHINEd_sun_aljolscmmzydegqp.tif,33,0.0666666666666667,0.0666666666666667,1.75,16165.322187042,16166.267014875,13,16165.388987459,16165.4550805,16166.275873667,16168.01925175,1,0.94482783300009
102,32,8,categorization,0,bathroom,SHINEd_sun_apkxzenqapsujocq.tif,45,0.0666666666666667,0.0666666666666667,1.25,16168.038193042,16168.756333167,13,16168.104929125,16168.171149084,16168.777934875,16170.0213155,1,0.718140124999991
102,33,8,categorization,0,kitchen,SHINEd_sun_abpwyqmlzafvklqo.tif,72,0.0666666666666667,0.0666666666666667,1.05,16170.038522667,16170.975508209,9,16170.10595925,16170.171165959,16170.99371125,16172.03707775,1,0.936985541999093
102,34,8,categorization,0,kitchen,SHINEd_sun_axyyrmzcupyhlivc.tif,107,0.0666666666666667,0.0666666666666667,1.06666666666667,16172.049252375,16172.843234542,9,16172.1145325,16172.180404375,16172.870053584,16173.93011075,1,0.793982167000649
102,35,8,categorization,0,bathroom,SHINEd_sun_afcoljnjfoxjtgja.tif,20,0.0666666666666667,0.0666666666666667,1.21666666666667,16173.945829292,16175.138307417,13,16174.012779334,16174.078757625,16175.147655125,16176.3576875,1,1.19247812499998
102,36,8,categorization,0,bathroom,SHINEd_sun_agrwbmhcpmfuwmsg.tif,24,0.0666666666666667,0.0666666666666667,0.95,16176.371073875,16177.238737292,9,16176.437942042,16176.503984125,16177.261470084,16178.204840375,0,0.867663417000585
102,37,8,categorization,0,bathroom,SHINEd_sun_apkruvsevgegsdwp.tif,44,0.0666666666666667,0.0666666666666667,0.9,16178.221496042,16178.970304417,13,16178.284094417,16178.344250625,16178.979748625,16179.873086209,1,0.748808374999498
102,38,8,categorization,0,kitchen,SHINEd_labelme_rykdqxenmhulbdn.tif,63,0.0666666666666667,0.0666666666666667,1.78333333333333,16179.878226125,16180.529913959,9,16179.93990075,16180.000901084,16180.536054584,16182.312783375,1,0.651687834000768
102,39,8,categorization,0,kitchen,SHINEd_sun_acfmftudsenhrfhy.tif,74,0.0666666666666667,0.0666666666666667,1.16666666666667,16182.323226167,16183.066381125,9,16182.390166375,16182.456361584,16183.096263792,16184.256313584,1,0.74315495799965
102,40,8,categorization,0,bathroom,SHINEd_sun_aqrpegblszgcoujh.tif,48,0.0666666666666667,0.0666666666666667,0.783333333333333,16184.265477417,16185.740386709,9,16184.330765084,16184.398193084,16185.75692775,16186.533600375,0,1.47490929199921
102,41,8,categorization,0,bathroom,SHINEd_sun_ahijqszoswveeyji.tif,28,0.0666666666666667,0.0666666666666667,1.23333333333333,16186.539037834,16187.354059375,13,16186.600780417,16186.661636,16187.363908459,16188.590631167,1,0.815021541000533
102,42,8,categorization,0,bathroom,SHINEd_sun_ahqjwnzgolcaoidx.tif,29,0.0666666666666667,0.0666666666666667,0.9,16188.607024542,16189.542696209,9,16188.674153584,16188.739969542,16189.563248,16190.45663675,0,0.935671667000861
102,43,8,categorization,0,bathroom,SHINEd_sun_ahaulkltgpkeeemi.tif,26,0.0666666666666667,0.0666666666666667,0.7,16190.469945709,16191.169924167,13,16190.532552292,16190.592610459,16191.1776055,16191.870944084,1,0.69997845800026
102,44,8,categorization,0,bathroom,SHINEd_sun_axxbkopsgyouuebh.tif,58,0.0666666666666667,0.0666666666666667,1.23333333333333,16191.876298125,16192.609642542,13,16191.938040875,16191.998928292,16192.617598,16193.84430975,1,0.733344416999898
102,45,8,categorization,0,kitchen,SHINEd_sun_aymvwlarqodbwuoc.tif,108,0.0666666666666667,0.0666666666666667,1,16193.860519167,16194.70933175,9,16193.927373834,16193.993096875,16194.733341584,16195.726680417,1,0.848812583000836
102,46,8,categorization,0,bathroom,SHINEd_labelme_sfxiulhjbhlyiyt.tif,11,0.0666666666666667,0.0666666666666667,1.38333333333333,16195.732510334,16196.553787167,13,16195.794537167,16195.855289834,16196.557065834,16197.933773167,1,0.821276832999501
102,47,8,categorization,0,bathroom,SHINEd_sun_alkosphxlxwjwgjd.tif,34,0.0666666666666667,0.0666666666666667,1.3,16197.948097667,16199.333319084,13,16198.015098292,16198.081252334,16199.357818334,16200.651187084,1,1.38522141700014
102,48,8,categorization,0,kitchen,SHINEd_sun_abftihopvusyfakt.tif,71,0.0666666666666667,0.0666666666666667,0.833333333333333,16200.672267334,16201.470772959,13,16200.73964,16200.805111167,16201.494823125,16202.321588875,0,0.798505625001781
102,49,8,categorization,0,kitchen,SHINEd_sun_afuyedyxivkhecmu.tif,85,0.0666666666666667,0.0666666666666667,0.95,16202.33255025,16203.033565042,9,16202.399394959,16202.457804875,16203.042821709,16203.986159209,1,0.701014792000933
102,50,8,categorization,0,kitchen,SHINEd_sun_admlmbcdswaszruo.tif,79,0.0666666666666667,0.0666666666666667,1.43333333333333,16203.991148959,16204.970254375,9,16204.052915792,16204.113826334,16204.982877167,16206.409576709,1,0.979105416001403
102,1,9,categorization,0,bathroom,SHINEd_sun_anhioqovhscjqqwb.tif,38,0.0666666666666667,0.0666666666666667,1.08333333333333,16213.929308,16214.690200709,13,16213.99182025,16214.052160167,16214.703969084,16215.780689209,1,0.760892708998654
