sub_num,trial,block,task,is_practice,category,image,texture,duration,mask_dur,jitter,stim_time,time_of_resp,trial_response,mask_time,fix_time,jit_onset,trial_end,trial_accuracy,RT
102,1,2,categorization,0,bathroom,SHINEd_sun_aggnnqpdorgxpvce.tif,21,0.0833333333333333,0.0666666666666667,0.95,2651.015725958,2652.11993675,9,2651.094489916,2651.155261041,2652.123695833,2653.067035166,NaN,NaN
102,2,2,categorization,0,bathroom,SHINEd_sun_afcoljnjfoxjtgja.tif,20,0.0833333333333333,0.0666666666666667,0.75,2653.072058666,2653.744809916,13,2653.150493625,2653.211571541,2653.763530291,2654.50686775,NaN,NaN
102,3,2,categorization,0,kitchen,SHINEd_sun_afuyedyxivkhecmu.tif,85,0.0833333333333333,0.0666666666666667,1.68333333333333,2654.511666833,2655.407700833,9,2654.590129541,2654.651284958,2655.419819375,2657.096526916,NaN,NaN
102,4,2,categorization,0,bathroom,SHINEd_sun_apmqjbnwghzuhhzh.tif,46,0.0833333333333333,0.0666666666666667,0.816666666666667,2657.11372775,2657.851956125,13,2657.197260208,2657.263914,2657.870069166,2658.6800745,NaN,NaN
102,5,2,categorization,0,bathroom,SHINEd_sun_anryaplzeujmzfkd.tif,39,0.0833333333333333,0.0666666666666667,0.916666666666667,2658.686000166,2659.608134958,13,2658.764289416,2658.825495916,2659.627331666,2660.537335666,NaN,NaN
102,6,2,categorization,0,bathroom,SHINEd_sun_aoybiabnpadelefl.tif,41,0.0833333333333333,0.0666666666666667,1.21666666666667,2660.542114583,2661.495744833,13,2660.620425916,2660.681814375,2661.500594791,2662.710627958,NaN,NaN
102,7,2,categorization,0,bathroom,SHINEd_sun_ahcvzmoyaycdoftf.tif,27,0.0833333333333333,0.0666666666666667,0.9,2662.723928375,2663.413404541,13,2662.807843333,2662.874319625,2663.430488166,2664.32385725,NaN,NaN
102,8,2,categorization,0,bathroom,SHINEd_sun_apkxzenqapsujocq.tif,45,0.0833333333333333,0.0666666666666667,1.65,2664.339681958,2664.944845083,13,2664.423450666,2664.490201791,2664.959171916,2666.602557083,NaN,NaN
102,9,2,categorization,0,kitchen,SHINEd_sun_ahpczsiumwwocjkv.tif,92,0.0833333333333333,0.0666666666666667,1.15,2666.617395375,2667.280708666,9,2666.700720583,2666.767808708,2667.30729675,2668.45068325,NaN,NaN
102,10,2,categorization,0,kitchen,SHINEd_sun_akchetnepxlcxhsu.tif,98,0.0833333333333333,0.0666666666666667,1.13333333333333,2668.461375708,2669.227634166,13,2668.5456475,2668.611949583,2669.2519505,2670.378653666,NaN,NaN
102,11,2,categorization,0,bathroom,SHINEd_sun_akiytfaagpdsphgz.tif,31,0.0833333333333333,0.0666666666666667,1.76666666666667,2670.397247958,2671.024425166,13,2670.476531875,2670.536766833,2671.038560958,2672.798610666,NaN,NaN
102,12,2,categorization,0,bathroom,SHINEd_sun_amzlamotzwfkwjco.tif,37,0.0833333333333333,0.0666666666666667,1.8,2672.8184745,2673.4993035,13,2672.90243225,2672.969412333,2673.52637075,2675.319752791,NaN,NaN
102,13,2,categorization,0,bathroom,SHINEd_sun_asfwthctfqerjvxr.tif,49,0.0833333333333333,0.0666666666666667,0.9,2675.338904208,2676.076206041,13,2675.422779166,2675.489583083,2676.096488125,2676.989825416,NaN,NaN
102,14,2,categorization,0,bathroom,SHINEd_sun_abjtwfukuwddzted.tif,15,0.0833333333333333,0.0666666666666667,0.716666666666667,2676.99543575,2677.920364333,9,2677.073780083,2677.135087375,2677.936937041,2678.646940166,NaN,NaN
102,15,2,categorization,0,bathroom,SHINEd_labelme_sfxiulhjbhlyiyt.tif,11,0.0833333333333333,0.0666666666666667,1.36666666666667,2678.65289375,2679.407870125,13,2678.731354791,2678.79260725,2679.410820833,2680.7708535,NaN,NaN
102,16,2,categorization,0,kitchen,SHINEd_labelme_brsyyvweiuaazfr.tif,61,0.0833333333333333,0.0666666666666667,0.916666666666667,2680.78837475,2681.443577875,9,2680.870584958,2680.938767458,2681.461419708,2682.371454416,NaN,NaN
102,17,2,categorization,0,kitchen,SHINEd_sun_auticobqsbwgoppi.tif,104,0.0833333333333333,0.0666666666666667,0.716666666666667,2682.383368875,2683.048482,9,2682.466586833,2682.52492925,2683.060164333,2683.7701695,NaN,NaN
102,18,2,categorization,0,bathroom,SHINEd_sun_aljolscmmzydegqp.tif,33,0.0833333333333333,0.0666666666666667,0.766666666666667,2683.774893375,2684.952664583,13,2683.853241083,2683.914441416,2684.966306375,2685.726310791,NaN,NaN
102,19,2,categorization,0,bathroom,SHINEd_sun_awnqiikzaispgmwo.tif,56,0.0833333333333333,0.0666666666666667,1.06666666666667,2685.730889041,2686.383942875,13,2685.809173083,2685.87051575,2686.389176625,2687.449213625,NaN,NaN
102,20,2,categorization,0,kitchen,SHINEd_sun_abftihopvusyfakt.tif,71,0.0833333333333333,0.0666666666666667,0.8,2687.457648875,2688.110487458,9,2687.538727041,2687.607158625,2688.130256708,2688.923643166,NaN,NaN
102,21,2,categorization,0,kitchen,SHINEd_sun_acxkpeoqbwcxfvip.tif,77,0.0833333333333333,0.0666666666666667,0.866666666666667,2688.94012475,2689.616583625,9,2689.023627875,2689.090360041,2689.62615,2690.48615525,NaN,NaN
102,22,2,categorization,0,bathroom,SHINEd_sun_aapitsgbtktqubfy.tif,12,0.0833333333333333,0.0666666666666667,1.48333333333333,2690.49102125,2691.144647333,13,2690.569360166,2690.630756958,2691.149242958,2692.625955958,NaN,NaN
102,23,2,categorization,0,kitchen,SHINEd_sun_ahdycvpopffkzzsu.tif,90,0.0833333333333333,0.0666666666666667,1.1,2692.639983583,2693.459179,9,2692.723244541,2692.790280958,2693.480206458,2694.573590958,NaN,NaN
102,24,2,categorization,0,kitchen,SHINEd_sun_aarfiyshqohlwkmo.tif,67,0.0833333333333333,0.0666666666666667,0.783333333333333,2694.582509083,2695.355063375,9,2694.6639755,2694.733157583,2695.372480458,2696.149197,NaN,NaN
102,25,2,categorization,0,kitchen,SHINEd_sun_avszsnwsbuqfgzbn.tif,105,0.0833333333333333,0.0666666666666667,0.866666666666667,2696.165955833,2696.824244625,9,2696.249370625,2696.315720166,2696.834747416,2697.694750833,NaN,NaN
102,26,2,categorization,0,bathroom,SHINEd_sun_auzqhkafidnkrwmo.tif,54,0.0833333333333333,0.0666666666666667,1.83333333333333,2697.699933416,2698.36786325,13,2697.778432,2697.839481166,2698.374545041,2700.201252041,NaN,NaN
102,27,2,categorization,0,kitchen,SHINEd_sun_acgtpgfybqjmzeyw.tif,75,0.0833333333333333,0.0666666666666667,0.7,2700.220952916,2700.776266583,9,2700.304302375,2700.371655416,2700.794697125,2701.488078375,NaN,NaN
102,28,2,categorization,0,kitchen,SHINEd_labelme_kxvouciolcpqplr.tif,62,0.0833333333333333,0.0666666666666667,1.33333333333333,2701.497691916,2702.17622075,9,2701.576800083,2701.637358208,2702.189187583,2703.515906833,NaN,NaN
102,29,2,categorization,0,kitchen,SHINEd_sun_axyyrmzcupyhlivc.tif,107,0.0833333333333333,0.0666666666666667,1.33333333333333,2703.537894333,2704.394796541,9,2703.621489375,2703.688463833,2704.411240625,2705.737940833,NaN,NaN
102,30,2,categorization,0,bathroom,SHINEd_sun_abapwbhyhkfixyex.tif,14,0.0833333333333333,0.0666666666666667,1.38333333333333,2705.756434208,2706.458462291,9,2705.839773666,2705.906859541,2706.479890375,2707.856600833,NaN,NaN
102,31,2,categorization,0,kitchen,SHINEd_sun_abdxkyyxwfskuaqb.tif,70,0.0833333333333333,0.0666666666666667,1.25,2707.871697708,2708.645620125,9,2707.955382125,2708.021826666,2708.661055166,2709.904444125,NaN,NaN
102,32,2,categorization,0,bathroom,SHINEd_sun_alkosphxlxwjwgjd.tif,34,0.0833333333333333,0.0666666666666667,1.55,2709.917648791,2710.605551416,13,2710.001478458,2710.067825875,2710.622278958,2712.165669875,NaN,NaN
102,33,2,categorization,0,kitchen,SHINEd_sun_ahspylgoovwmwvgk.tif,93,0.0833333333333333,0.0666666666666667,1.61666666666667,2712.183350666,2712.864875625,9,2712.266880208,2712.333744541,2712.890774833,2714.500832125,NaN,NaN
102,34,2,categorization,0,kitchen,SHINEd_sun_agzzivivdpnawacl.tif,89,0.0833333333333333,0.0666666666666667,1.33333333333333,2714.520879416,2715.345072541,9,2714.604112666,2714.671285208,2715.360661666,2716.687367875,NaN,NaN
102,35,2,categorization,0,bathroom,SHINEd_sun_aunuadmjocsddsrl.tif,52,0.0833333333333333,0.0666666666666667,0.833333333333333,2716.705531416,2717.563465666,13,2716.7890965,2716.856071708,2717.578444375,2718.405153625,NaN,NaN
102,36,2,categorization,0,bathroom,SHINEd_sun_acduarbnmmoglmiv.tif,16,0.0833333333333333,0.0666666666666667,1.45,2718.421306791,2719.0475885,13,2718.500798958,2718.561545541,2719.063219166,2720.506596708,NaN,NaN
102,37,2,categorization,0,bathroom,SHINEd_sun_agyqfjcfkdcydepw.tif,25,0.0833333333333333,0.0666666666666667,0.933333333333333,2720.524045041,2721.280348083,13,2720.607673166,2720.674882333,2721.297370708,2722.224042291,NaN,NaN
102,38,2,categorization,0,bathroom,SHINEd_sun_azqyogdvyhahyram.tif,60,0.0833333333333333,0.0666666666666667,1.65,2722.229688166,2722.839784083,13,2722.308123916,2722.369190041,2722.854384333,2724.497750583,NaN,NaN
102,39,2,categorization,0,kitchen,SHINEd_sun_aymvwlarqodbwuoc.tif,108,0.0833333333333333,0.0666666666666667,1.23333333333333,2724.5160225,2725.446943166,9,2724.599395333,2724.666622833,2725.473580625,2726.700296583,NaN,NaN
102,40,2,categorization,0,bathroom,SHINEd_sun_apjevzvycyhuqghb.tif,43,0.0833333333333333,0.0666666666666667,0.766666666666667,2726.720917208,2727.717462041,13,2726.804966916,2726.871837,2727.74569975,2728.505736125,NaN,NaN
102,41,2,categorization,0,kitchen,SHINEd_sun_aapllqyqlykszopd.tif,66,0.0833333333333333,0.0666666666666667,1.78333333333333,2728.519969458,2729.271496958,9,2728.599643,2728.659640208,2729.278251791,2731.054957583,NaN,NaN
102,42,2,categorization,0,bathroom,SHINEd_sun_agguqiubmwhqqunb.tif,22,0.0833333333333333,0.0666666666666667,1.11666666666667,2731.073511,2731.78538525,13,2731.156717541,2731.2236905,2731.813712833,2732.923764,NaN,NaN
102,43,2,categorization,0,bathroom,SHINEd_sun_anhioqovhscjqqwb.tif,38,0.0833333333333333,0.0666666666666667,1.85,2732.933184,2733.561148083,13,2733.014745875,2733.083365541,2733.589244541,2735.43261025,NaN,NaN
102,44,2,categorization,0,kitchen,SHINEd_sun_akcjzhbbjlbogpdi.tif,99,0.0833333333333333,0.0666666666666667,0.733333333333333,2735.451296375,2736.12516875,9,2735.534984083,2735.601915291,2736.140934666,2736.86763725,NaN,NaN
102,45,2,categorization,0,bathroom,SHINEd_sun_atstyziqcmkahyxk.tif,51,0.0833333333333333,0.0666666666666667,0.783333333333333,2736.884395625,2737.583550208,13,2736.967677083,2737.025780625,2737.594295291,2738.370967333,NaN,NaN
102,46,2,categorization,0,bathroom,SHINEd_sun_apeeialkgkuxddgh.tif,42,0.0833333333333333,0.0666666666666667,1.5,2738.375876791,2739.008203708,13,2738.454378958,2738.51547275,2739.017405083,2740.510779458,NaN,NaN
102,47,2,categorization,0,kitchen,SHINEd_labelme_rykdqxenmhulbdn.tif,63,0.0833333333333333,0.0666666666666667,0.733333333333333,2740.530280833,2741.363767416,9,2740.614045958,2740.681011291,2741.388548333,2742.115221,NaN,NaN
102,48,2,categorization,0,kitchen,SHINEd_sun_ajkqhtgcbgpcwrwn.tif,97,0.0833333333333333,0.0666666666666667,1.1,2742.120881166,2742.848507625,9,2742.199504833,2742.260502916,2742.862321583,2743.955708166,NaN,NaN
102,49,2,categorization,0,kitchen,SHINEd_sun_abrcnpqqhmjwekyf.tif,73,0.0833333333333333,0.0666666666666667,1.6,2743.965884625,2744.723418916,13,2744.047688458,2744.111557208,2744.752571291,2746.345950583,NaN,NaN
102,50,2,categorization,0,bathroom,SHINEd_sun_axxbkopsgyouuebh.tif,58,0.0833333333333333,0.0666666666666667,1.06666666666667,2746.3647975,2746.933732208,13,2746.449613875,2746.515533458,2746.954954583,2748.014979125,NaN,NaN
