sub_num,trial,block,task,is_practice,category,image,texture,duration,mask_dur,jitter,stim_time,time_of_resp,trial_response,mask_time,fix_time,jit_onset,trial_end,trial_accuracy,RT
102,1,1,categorization,0,kitchen,SHINEd_sun_aegoxogugdkwpmpj.tif,80,0.0833333333333333,0.0666666666666667,1.23333333333333,2548.460717166,2549.736232958,13,2548.543774833,2548.6038155,2549.759236041,2550.986812958,0,1.27551579200008
102,2,1,categorization,0,bathroom,SHINEd_sun_aleqenyvunhactkl.tif,32,0.0833333333333333,0.0666666666666667,0.783333333333333,2551.046023333,2551.711902416,13,2551.135011583,2551.2024345,2551.746305875,2552.523172125,1,0.665879083000164
102,3,1,categorization,0,kitchen,SHINEd_sun_aggjlwcdjsjcaemh.tif,86,0.0833333333333333,0.0666666666666667,0.75,2552.567289041,2553.209143625,9,2552.653469958,2552.716318916,2553.21854475,2553.961881708,1,0.641854583999702
102,4,1,categorization,0,bathroom,SHINEd_sun_aqrpegblszgcoujh.tif,48,0.0833333333333333,0.0666666666666667,1.23333333333333,2553.966919833,2554.608398833,13,2554.0454475,2554.106811833,2554.625177416,2555.851892375,1,0.641479000000345
102,5,1,categorization,0,kitchen,SHINEd_sun_auaiucuqpdausiva.tif,102,0.0833333333333333,0.0666666666666667,1.13333333333333,2555.871599666,2556.608579583,13,2555.955068625,2556.021587625,2556.626789125,2557.753497041,0,0.736979917000099
102,6,1,categorization,0,kitchen,SHINEd_sun_aadbddgrdsjugojn.tif,64,0.0833333333333333,0.0666666666666667,0.95,2557.763142666,2558.394266666,9,2557.844573833,2557.913423458,2558.419922708,2559.363297,1,0.631124
102,7,1,categorization,0,kitchen,SHINEd_sun_aunzlwrbjumxhwdj.tif,103,0.0833333333333333,0.0666666666666667,0.733333333333333,2559.38066525,2560.000848458,9,2559.46389725,2559.531139083,2560.016203833,2560.742874583,1,0.620183207999617
102,8,1,categorization,0,bathroom,SHINEd_sun_ajlawzvmubibwbpy.tif,30,0.0833333333333333,0.0666666666666667,1.31666666666667,2560.747716875,2561.512705208,13,2560.82621725,2560.88753525,2561.522654291,2562.832688791,1,0.764988333000019
102,9,1,categorization,0,bathroom,SHINEd_sun_ahqjwnzgolcaoidx.tif,29,0.0833333333333333,0.0666666666666667,0.8,2562.846013916,2563.483457166,13,2562.931025458,2562.996182291,2563.502391958,2564.295767083,1,0.637443249999706
102,10,1,categorization,0,bathroom,SHINEd_sun_ausgutylgojavyoq.tif,53,0.0833333333333333,0.0666666666666667,0.716666666666667,2564.312800458,2564.92812575,13,2564.39646075,2564.462905083,2564.931817458,2565.641822916,1,0.615325292000307
102,11,1,categorization,0,kitchen,SHINEd_sun_agubuxuukhzyzpdp.tif,88,0.0833333333333333,0.0666666666666667,0.916666666666667,2565.646908125,2566.47300525,13,2565.725550958,2565.7865285,2566.488554208,2567.398558208,0,0.826097124999706
102,12,1,categorization,0,kitchen,SHINEd_sun_ahljzhgcdpomplvg.tif,91,0.0833333333333333,0.0666666666666667,0.95,2567.404196375,2568.136820708,9,2567.48261175,2567.543749375,2568.145771125,2569.089109416,1,0.732624332999876
102,13,1,categorization,0,bathroom,SHINEd_sun_acegryoqftbzowsg.tif,17,0.0833333333333333,0.0666666666666667,0.833333333333333,2569.094430625,2569.777054083,9,2569.172793333,2569.234408041,2569.78608075,2570.612751791,0,0.682623458000307
102,14,1,categorization,0,bathroom,SHINEd_sun_apkruvsevgegsdwp.tif,44,0.0833333333333333,0.0666666666666667,0.75,2570.617412125,2571.288298666,13,2570.695889583,2570.756956166,2571.292147958,2572.035485,1,0.670886541000073
102,15,1,categorization,0,kitchen,SHINEd_sun_azmutvzbxypaceni.tif,110,0.0833333333333333,0.0666666666666667,1.53333333333333,2572.040194208,2572.911929958,13,2572.118542708,2572.180140291,2572.915153833,2574.441870375,0,0.871735750000425
102,16,1,categorization,0,kitchen,SHINEd_sun_amjjdeyrggfqgmom.tif,100,0.0833333333333333,0.0666666666666667,1.05,2574.459902333,2575.196437166,9,2574.543186875,2574.610567666,2575.217056208,2576.260429625,1,0.736534832999951
102,17,1,categorization,0,bathroom,SHINEd_sun_aghyqhbptboemmoq.tif,23,0.0833333333333333,0.0666666666666667,0.9,2576.269625708,2576.838493708,13,2576.351254375,2576.416972916,2576.855889708,2577.749275291,1,0.568867999999839
102,18,1,categorization,0,bathroom,SHINEd_sun_ambriybtogmepttm.tif,36,0.0833333333333333,0.0666666666666667,1.18333333333333,2577.765171208,2578.464260875,13,2577.848734583,2577.915357125,2578.484591625,2579.661299708,1,0.699089666999953
102,19,1,categorization,0,kitchen,SHINEd_sun_abpwyqmlzafvklqo.tif,72,0.0833333333333333,0.0666666666666667,0.9,2579.670728041,2580.374378375,9,2579.754461833,2579.82072925,2580.393885791,2581.287272791,1,0.703650334000031
102,20,1,categorization,0,kitchen,SHINEd_sun_agorklincwxrdtga.tif,87,0.0833333333333333,0.0666666666666667,1.66666666666667,2581.304828708,2582.041155375,9,2581.388279416,2581.454844166,2582.0571565,2583.717203291,1,0.736326666999958
102,21,1,categorization,0,bathroom,SHINEd_sun_alotolagknyrgtsk.tif,35,0.0833333333333333,0.0666666666666667,1.13333333333333,2583.7347875,2584.357133875,13,2583.818430166,2583.885446625,2584.374637083,2585.501337625,1,0.622346374999779
102,22,1,categorization,0,bathroom,SHINEd_sun_ahijqszoswveeyji.tif,28,0.0833333333333333,0.0666666666666667,1.3,2585.511242,2586.2251405,13,2585.594665375,2585.66132625,2586.251334583,2587.544705416,1,0.713898500000141
102,23,1,categorization,0,bathroom,SHINEd_sun_axyrejkiiaqiurjk.tif,59,0.0833333333333333,0.0666666666666667,1.93333333333333,2587.561169875,2588.258504708,13,2587.644467708,2587.707318,2588.280904041,2590.20761325,1,0.697334833000241
102,24,1,categorization,0,kitchen,SHINEd_sun_aqeaevwwwjoqhzvl.tif,101,0.0833333333333333,0.0666666666666667,1,2590.223661333,2591.169486083,9,2590.30716425,2590.374414916,2591.197750333,2592.191088708,1,0.945824749999701
102,25,1,categorization,0,bathroom,SHINEd_sun_axldvoqbuvuggfmq.tif,57,0.0833333333333333,0.0666666666666667,0.883333333333333,2592.196085333,2592.832617791,13,2592.274465541,2592.335669166,2592.837436083,2593.714107125,1,0.636532457999692
102,26,1,categorization,0,bathroom,SHINEd_sun_aavhrsfjbserjtht.tif,13,0.0833333333333333,0.0666666666666667,1.95,2593.719829291,2594.536577375,13,2593.798318,2593.859414291,2594.544577375,2596.487955833,1,0.816748083999755
102,27,1,categorization,0,kitchen,SHINEd_sun_ahywdevtimnqcsln.tif,94,0.0833333333333333,0.0666666666666667,1.25,2596.505288416,2597.169089625,9,2596.588729875,2596.654777916,2597.194721333,2598.438089666,1,0.663801209000212
102,28,1,categorization,0,kitchen,SHINEd_sun_acwjdupvyjsugpay.tif,76,0.0833333333333333,0.0666666666666667,1.95,2598.456887541,2599.186192458,9,2598.540741458,2598.607716916,2599.215061333,2601.158432166,1,0.729304916999808
102,29,1,categorization,0,bathroom,SHINEd_sun_acgyywnybuveqsro.tif,18,0.0833333333333333,0.0666666666666667,1.91666666666667,2601.17735325,2601.786093375,13,2601.261203166,2601.328573666,2601.801299416,2603.711340083,1,0.608740124999713
102,30,1,categorization,0,kitchen,SHINEd_sun_awcpdzzznmweyyhv.tif,106,0.0833333333333333,0.0666666666666667,1.41666666666667,2603.726334291,2604.694150333,9,2603.8102645,2603.876875958,2604.71733025,2606.127369833,1,0.967816041999868
102,31,1,categorization,0,kitchen,SHINEd_sun_aaxxjlsuzvqlgylf.tif,68,0.0833333333333333,0.0666666666666667,0.716666666666667,2606.14641875,2606.988876416,13,2606.231400208,2606.29732375,2607.003179791,2607.713214208,0,0.842457665999973
102,32,1,categorization,0,bathroom,SHINEd_sun_ahaulkltgpkeeemi.tif,26,0.0833333333333333,0.0666666666666667,1.28333333333333,2607.729618208,2608.424762666,13,2607.809203041,2607.869361291,2608.437797791,2609.714507916,1,0.695144457999959
102,33,1,categorization,0,bathroom,SHINEd_sun_avhrdrntsqrjzccq.tif,55,0.0833333333333333,0.0666666666666667,0.9,2609.732628958,2610.510665708,13,2609.816561916,2609.882954,2610.540293666,2611.433670791,1,0.778036749999956
102,34,1,categorization,0,kitchen,SHINEd_sun_aehawpgmrlhlvcow.tif,81,0.0833333333333333,0.0666666666666667,0.8,2611.450525958,2612.28848725,13,2611.533797458,2611.592497958,2612.294566041,2613.08790475,0,0.837961291999818
102,35,1,categorization,0,bathroom,SHINEd_sun_apynckhmoftszqoq.tif,47,0.0833333333333333,0.0666666666666667,1.01666666666667,2613.092798125,2613.68086025,13,2613.171253625,2613.2324265,2613.684321416,2614.694356791,1,0.588062124999851
102,36,1,categorization,0,bathroom,SHINEd_sun_aclfzgynxzxlbepz.tif,19,0.0833333333333333,0.0666666666666667,0.85,2614.703202166,2615.339938958,13,2614.784052541,2614.852030916,2615.357891583,2616.201266833,1,0.636736791999738
102,37,1,categorization,0,bathroom,SHINEd_sun_agrwbmhcpmfuwmsg.tif,24,0.0833333333333333,0.0666666666666667,1.51666666666667,2616.217890333,2616.848804916,9,2616.301241083,2616.36859725,2616.854563583,2618.364600583,0,0.630914583000049
102,38,1,categorization,0,kitchen,SHINEd_sun_abdenxonkemggwsq.tif,69,0.0833333333333333,0.0666666666666667,1.83333333333333,2618.382450416,2619.158009583,9,2618.465895625,2618.532455166,2619.188784375,2621.015489583,1,0.775559166999756
102,39,1,categorization,0,kitchen,SHINEd_sun_aexklacwqwezaorf.tif,84,0.0833333333333333,0.0666666666666667,0.716666666666667,2621.026207583,2621.732465916,9,2621.110424875,2621.17705475,2621.750787083,2622.460792666,1,0.706258332999823
102,40,1,categorization,0,kitchen,SHINEd_sun_admlmbcdswaszruo.tif,79,0.0833333333333333,0.0666666666666667,0.9,2622.466543166,2623.160981458,9,2622.544997208,2622.606164083,2623.174730791,2624.068068666,1,0.694438292000086
102,41,1,categorization,0,kitchen,SHINEd_sun_adgqasybjyktddhj.tif,78,0.0833333333333333,0.0666666666666667,0.916666666666667,2624.072910416,2624.9445055,9,2624.15138025,2624.212527416,2624.964710333,2625.874715458,1,0.871595084000091
102,42,1,categorization,0,kitchen,SHINEd_sun_ajcbwwvdlsvjyzje.tif,96,0.0833333333333333,0.0666666666666667,0.816666666666667,2625.879591083,2627.08842,9,2625.958066541,2626.019168958,2627.1047765,2627.91478225,1,1.20882891700012
102,43,1,categorization,0,kitchen,SHINEd_sun_aeqdocilnnpuvuhx.tif,83,0.0833333333333333,0.0666666666666667,1.88333333333333,2627.919449041,2628.792865916,9,2627.997911916,2628.059044041,2628.810827791,2630.687531625,1,0.873416875000203
102,44,1,categorization,0,kitchen,SHINEd_sun_acfmftudsenhrfhy.tif,74,0.0833333333333333,0.0666666666666667,0.9,2630.70516925,2631.584253666,9,2630.788608375,2630.855804916,2631.612506791,2632.505844291,1,0.879084416000296
102,45,1,categorization,0,bathroom,SHINEd_sun_aofnryafpsjimzsb.tif,40,0.0833333333333333,0.0666666666666667,1,2632.510757125,2633.215936333,13,2632.589104416,2632.650520416,2633.235768916,2634.229107458,1,0.705179208000118
102,46,1,categorization,0,bathroom,SHINEd_sun_aspsyogrekjtfozg.tif,50,0.0833333333333333,0.0666666666666667,0.733333333333333,2634.234072166,2634.931404958,13,2634.312526375,2634.373657708,2634.942310666,2635.668980875,1,0.697332791999997
102,47,1,categorization,0,kitchen,SHINEd_sun_aixorpehvfykdynp.tif,95,0.0833333333333333,0.0666666666666667,0.883333333333333,2635.673684166,2636.696220375,13,2635.752294875,2635.813196625,2636.715023291,2637.591694625,0,1.02253620900001
102,48,1,categorization,0,kitchen,SHINEd_sun_aypmqwcualkenuoe.tif,109,0.0833333333333333,0.0666666666666667,1.73333333333333,2637.596510208,2638.352554666,9,2637.674833291,2637.736098625,2638.371516583,2640.098237,1,0.756044457999906
102,49,1,categorization,0,kitchen,SHINEd_sun_aamedkxepzlwuxes.tif,65,0.0833333333333333,0.0666666666666667,1.91666666666667,2640.116242875,2640.94182375,9,2640.199398625,2640.266571458,2640.955497458,2642.865531083,1,0.825580875000014
102,50,1,categorization,0,kitchen,SHINEd_sun_aenotlpyftoioydp.tif,82,0.0833333333333333,0.0666666666666667,1.35,2642.884585833,2643.578726791,9,2642.969580541,2643.035155208,2643.608628125,2644.951993125,1,0.694140957999934
102,1,2,categorization,0,bathroom,SHINEd_sun_aggnnqpdorgxpvce.tif,21,0.0833333333333333,0.0666666666666667,0.95,2651.015725958,2652.11993675,9,2651.094489916,2651.155261041,2652.123695833,2653.067035166,0,1.10421079199978
102,2,2,categorization,0,bathroom,SHINEd_sun_afcoljnjfoxjtgja.tif,20,0.0833333333333333,0.0666666666666667,0.75,2653.072058666,2653.744809916,13,2653.150493625,2653.211571541,2653.763530291,2654.50686775,1,0.672751250000147
102,3,2,categorization,0,kitchen,SHINEd_sun_afuyedyxivkhecmu.tif,85,0.0833333333333333,0.0666666666666667,1.68333333333333,2654.511666833,2655.407700833,9,2654.590129541,2654.651284958,2655.419819375,2657.096526916,1,0.896033999999872
102,4,2,categorization,0,bathroom,SHINEd_sun_apmqjbnwghzuhhzh.tif,46,0.0833333333333333,0.0666666666666667,0.816666666666667,2657.11372775,2657.851956125,13,2657.197260208,2657.263914,2657.870069166,2658.6800745,1,0.738228374999835
102,5,2,categorization,0,bathroom,SHINEd_sun_anryaplzeujmzfkd.tif,39,0.0833333333333333,0.0666666666666667,0.916666666666667,2658.686000166,2659.608134958,13,2658.764289416,2658.825495916,2659.627331666,2660.537335666,1,0.922134791999724
102,6,2,categorization,0,bathroom,SHINEd_sun_aoybiabnpadelefl.tif,41,0.0833333333333333,0.0666666666666667,1.21666666666667,2660.542114583,2661.495744833,13,2660.620425916,2660.681814375,2661.500594791,2662.710627958,1,0.95363025000006
102,7,2,categorization,0,bathroom,SHINEd_sun_ahcvzmoyaycdoftf.tif,27,0.0833333333333333,0.0666666666666667,0.9,2662.723928375,2663.413404541,13,2662.807843333,2662.874319625,2663.430488166,2664.32385725,1,0.689476166000077
102,8,2,categorization,0,bathroom,SHINEd_sun_apkxzenqapsujocq.tif,45,0.0833333333333333,0.0666666666666667,1.65,2664.339681958,2664.944845083,13,2664.423450666,2664.490201791,2664.959171916,2666.602557083,1,0.605163125000217
102,9,2,categorization,0,kitchen,SHINEd_sun_ahpczsiumwwocjkv.tif,92,0.0833333333333333,0.0666666666666667,1.15,2666.617395375,2667.280708666,9,2666.700720583,2666.767808708,2667.30729675,2668.45068325,1,0.663313291000122
102,10,2,categorization,0,kitchen,SHINEd_sun_akchetnepxlcxhsu.tif,98,0.0833333333333333,0.0666666666666667,1.13333333333333,2668.461375708,2669.227634166,13,2668.5456475,2668.611949583,2669.2519505,2670.378653666,0,0.766258457999811
102,11,2,categorization,0,bathroom,SHINEd_sun_akiytfaagpdsphgz.tif,31,0.0833333333333333,0.0666666666666667,1.76666666666667,2670.397247958,2671.024425166,13,2670.476531875,2670.536766833,2671.038560958,2672.798610666,1,0.627177207999921
102,12,2,categorization,0,bathroom,SHINEd_sun_amzlamotzwfkwjco.tif,37,0.0833333333333333,0.0666666666666667,1.8,2672.8184745,2673.4993035,13,2672.90243225,2672.969412333,2673.52637075,2675.319752791,1,0.680829000000358
102,13,2,categorization,0,bathroom,SHINEd_sun_asfwthctfqerjvxr.tif,49,0.0833333333333333,0.0666666666666667,0.9,2675.338904208,2676.076206041,13,2675.422779166,2675.489583083,2676.096488125,2676.989825416,1,0.737301833000402
102,14,2,categorization,0,bathroom,SHINEd_sun_abjtwfukuwddzted.tif,15,0.0833333333333333,0.0666666666666667,0.716666666666667,2676.99543575,2677.920364333,9,2677.073780083,2677.135087375,2677.936937041,2678.646940166,0,0.92492858300011
102,15,2,categorization,0,bathroom,SHINEd_labelme_sfxiulhjbhlyiyt.tif,11,0.0833333333333333,0.0666666666666667,1.36666666666667,2678.65289375,2679.407870125,13,2678.731354791,2678.79260725,2679.410820833,2680.7708535,1,0.754976374999842
102,16,2,categorization,0,kitchen,SHINEd_labelme_brsyyvweiuaazfr.tif,61,0.0833333333333333,0.0666666666666667,0.916666666666667,2680.78837475,2681.443577875,9,2680.870584958,2680.938767458,2681.461419708,2682.371454416,1,0.655203124999844
102,17,2,categorization,0,kitchen,SHINEd_sun_auticobqsbwgoppi.tif,104,0.0833333333333333,0.0666666666666667,0.716666666666667,2682.383368875,2683.048482,9,2682.466586833,2682.52492925,2683.060164333,2683.7701695,1,0.665113125000062
102,18,2,categorization,0,bathroom,SHINEd_sun_aljolscmmzydegqp.tif,33,0.0833333333333333,0.0666666666666667,0.766666666666667,2683.774893375,2684.952664583,13,2683.853241083,2683.914441416,2684.966306375,2685.726310791,1,1.17777120800019
102,19,2,categorization,0,bathroom,SHINEd_sun_awnqiikzaispgmwo.tif,56,0.0833333333333333,0.0666666666666667,1.06666666666667,2685.730889041,2686.383942875,13,2685.809173083,2685.87051575,2686.389176625,2687.449213625,1,0.65305383399982
102,20,2,categorization,0,kitchen,SHINEd_sun_abftihopvusyfakt.tif,71,0.0833333333333333,0.0666666666666667,0.8,2687.457648875,2688.110487458,9,2687.538727041,2687.607158625,2688.130256708,2688.923643166,1,0.652838583000175
102,21,2,categorization,0,kitchen,SHINEd_sun_acxkpeoqbwcxfvip.tif,77,0.0833333333333333,0.0666666666666667,0.866666666666667,2688.94012475,2689.616583625,9,2689.023627875,2689.090360041,2689.62615,2690.48615525,1,0.676458875000208
102,22,2,categorization,0,bathroom,SHINEd_sun_aapitsgbtktqubfy.tif,12,0.0833333333333333,0.0666666666666667,1.48333333333333,2690.49102125,2691.144647333,13,2690.569360166,2690.630756958,2691.149242958,2692.625955958,1,0.65362608300029
102,23,2,categorization,0,kitchen,SHINEd_sun_ahdycvpopffkzzsu.tif,90,0.0833333333333333,0.0666666666666667,1.1,2692.639983583,2693.459179,9,2692.723244541,2692.790280958,2693.480206458,2694.573590958,1,0.819195417000174
102,24,2,categorization,0,kitchen,SHINEd_sun_aarfiyshqohlwkmo.tif,67,0.0833333333333333,0.0666666666666667,0.783333333333333,2694.582509083,2695.355063375,9,2694.6639755,2694.733157583,2695.372480458,2696.149197,1,0.772554292000223
102,25,2,categorization,0,kitchen,SHINEd_sun_avszsnwsbuqfgzbn.tif,105,0.0833333333333333,0.0666666666666667,0.866666666666667,2696.165955833,2696.824244625,9,2696.249370625,2696.315720166,2696.834747416,2697.694750833,1,0.658288791999894
102,26,2,categorization,0,bathroom,SHINEd_sun_auzqhkafidnkrwmo.tif,54,0.0833333333333333,0.0666666666666667,1.83333333333333,2697.699933416,2698.36786325,13,2697.778432,2697.839481166,2698.374545041,2700.201252041,1,0.667929834000006
102,27,2,categorization,0,kitchen,SHINEd_sun_acgtpgfybqjmzeyw.tif,75,0.0833333333333333,0.0666666666666667,0.7,2700.220952916,2700.776266583,9,2700.304302375,2700.371655416,2700.794697125,2701.488078375,1,0.555313667000064
102,28,2,categorization,0,kitchen,SHINEd_labelme_kxvouciolcpqplr.tif,62,0.0833333333333333,0.0666666666666667,1.33333333333333,2701.497691916,2702.17622075,9,2701.576800083,2701.637358208,2702.189187583,2703.515906833,1,0.67852883400019
102,29,2,categorization,0,kitchen,SHINEd_sun_axyyrmzcupyhlivc.tif,107,0.0833333333333333,0.0666666666666667,1.33333333333333,2703.537894333,2704.394796541,9,2703.621489375,2703.688463833,2704.411240625,2705.737940833,1,0.85690220799961
102,30,2,categorization,0,bathroom,SHINEd_sun_abapwbhyhkfixyex.tif,14,0.0833333333333333,0.0666666666666667,1.38333333333333,2705.756434208,2706.458462291,9,2705.839773666,2705.906859541,2706.479890375,2707.856600833,0,0.702028083000187
102,31,2,categorization,0,kitchen,SHINEd_sun_abdxkyyxwfskuaqb.tif,70,0.0833333333333333,0.0666666666666667,1.25,2707.871697708,2708.645620125,9,2707.955382125,2708.021826666,2708.661055166,2709.904444125,1,0.773922416999994
102,32,2,categorization,0,bathroom,SHINEd_sun_alkosphxlxwjwgjd.tif,34,0.0833333333333333,0.0666666666666667,1.55,2709.917648791,2710.605551416,13,2710.001478458,2710.067825875,2710.622278958,2712.165669875,1,0.687902624999879
102,33,2,categorization,0,kitchen,SHINEd_sun_ahspylgoovwmwvgk.tif,93,0.0833333333333333,0.0666666666666667,1.61666666666667,2712.183350666,2712.864875625,9,2712.266880208,2712.333744541,2712.890774833,2714.500832125,1,0.681524958999944
102,34,2,categorization,0,kitchen,SHINEd_sun_agzzivivdpnawacl.tif,89,0.0833333333333333,0.0666666666666667,1.33333333333333,2714.520879416,2715.345072541,9,2714.604112666,2714.671285208,2715.360661666,2716.687367875,1,0.824193124999965
102,35,2,categorization,0,bathroom,SHINEd_sun_aunuadmjocsddsrl.tif,52,0.0833333333333333,0.0666666666666667,0.833333333333333,2716.705531416,2717.563465666,13,2716.7890965,2716.856071708,2717.578444375,2718.405153625,1,0.857934249999744
102,36,2,categorization,0,bathroom,SHINEd_sun_acduarbnmmoglmiv.tif,16,0.0833333333333333,0.0666666666666667,1.45,2718.421306791,2719.0475885,13,2718.500798958,2718.561545541,2719.063219166,2720.506596708,1,0.626281709000068
102,37,2,categorization,0,bathroom,SHINEd_sun_agyqfjcfkdcydepw.tif,25,0.0833333333333333,0.0666666666666667,0.933333333333333,2720.524045041,2721.280348083,13,2720.607673166,2720.674882333,2721.297370708,2722.224042291,1,0.756303041999672
102,38,2,categorization,0,bathroom,SHINEd_sun_azqyogdvyhahyram.tif,60,0.0833333333333333,0.0666666666666667,1.65,2722.229688166,2722.839784083,13,2722.308123916,2722.369190041,2722.854384333,2724.497750583,1,0.610095916999853
102,39,2,categorization,0,kitchen,SHINEd_sun_aymvwlarqodbwuoc.tif,108,0.0833333333333333,0.0666666666666667,1.23333333333333,2724.5160225,2725.446943166,9,2724.599395333,2724.666622833,2725.473580625,2726.700296583,1,0.93092066600002
102,40,2,categorization,0,bathroom,SHINEd_sun_apjevzvycyhuqghb.tif,43,0.0833333333333333,0.0666666666666667,0.766666666666667,2726.720917208,2727.717462041,13,2726.804966916,2726.871837,2727.74569975,2728.505736125,1,0.996544832999916
102,41,2,categorization,0,kitchen,SHINEd_sun_aapllqyqlykszopd.tif,66,0.0833333333333333,0.0666666666666667,1.78333333333333,2728.519969458,2729.271496958,9,2728.599643,2728.659640208,2729.278251791,2731.054957583,1,0.751527500000066
102,42,2,categorization,0,bathroom,SHINEd_sun_agguqiubmwhqqunb.tif,22,0.0833333333333333,0.0666666666666667,1.11666666666667,2731.073511,2731.78538525,13,2731.156717541,2731.2236905,2731.813712833,2732.923764,1,0.711874250000164
102,43,2,categorization,0,bathroom,SHINEd_sun_anhioqovhscjqqwb.tif,38,0.0833333333333333,0.0666666666666667,1.85,2732.933184,2733.561148083,13,2733.014745875,2733.083365541,2733.589244541,2735.43261025,1,0.627964082999824
102,44,2,categorization,0,kitchen,SHINEd_sun_akcjzhbbjlbogpdi.tif,99,0.0833333333333333,0.0666666666666667,0.733333333333333,2735.451296375,2736.12516875,9,2735.534984083,2735.601915291,2736.140934666,2736.86763725,1,0.673872374999974
102,45,2,categorization,0,bathroom,SHINEd_sun_atstyziqcmkahyxk.tif,51,0.0833333333333333,0.0666666666666667,0.783333333333333,2736.884395625,2737.583550208,13,2736.967677083,2737.025780625,2737.594295291,2738.370967333,1,0.699154583000109
102,46,2,categorization,0,bathroom,SHINEd_sun_apeeialkgkuxddgh.tif,42,0.0833333333333333,0.0666666666666667,1.5,2738.375876791,2739.008203708,13,2738.454378958,2738.51547275,2739.017405083,2740.510779458,1,0.632326917000228
102,47,2,categorization,0,kitchen,SHINEd_labelme_rykdqxenmhulbdn.tif,63,0.0833333333333333,0.0666666666666667,0.733333333333333,2740.530280833,2741.363767416,9,2740.614045958,2740.681011291,2741.388548333,2742.115221,1,0.833486583000195
102,48,2,categorization,0,kitchen,SHINEd_sun_ajkqhtgcbgpcwrwn.tif,97,0.0833333333333333,0.0666666666666667,1.1,2742.120881166,2742.848507625,9,2742.199504833,2742.260502916,2742.862321583,2743.955708166,1,0.727626459000021
102,49,2,categorization,0,kitchen,SHINEd_sun_abrcnpqqhmjwekyf.tif,73,0.0833333333333333,0.0666666666666667,1.6,2743.965884625,2744.723418916,13,2744.047688458,2744.111557208,2744.752571291,2746.345950583,0,0.757534290999956
102,50,2,categorization,0,bathroom,SHINEd_sun_axxbkopsgyouuebh.tif,58,0.0833333333333333,0.0666666666666667,1.06666666666667,2746.3647975,2746.933732208,13,2746.449613875,2746.515533458,2746.954954583,2748.014979125,1,0.568934708000143
102,1,3,categorization,0,bathroom,SHINEd_sun_awnqiikzaispgmwo.tif,56,0.0833333333333333,0.0666666666666667,0.85,2761.4642885,2762.127618416,13,2761.543500125,2761.60389875,2762.139168291,2762.982505416,1,0.663329916000293
102,2,3,categorization,0,kitchen,SHINEd_sun_agorklincwxrdtga.tif,87,0.0833333333333333,0.0666666666666667,1.65,2762.987380208,2763.559749541,13,2763.065870291,2763.12698075,2763.578889666,2765.222256833,0,0.572369333000097
102,3,3,categorization,0,bathroom,SHINEd_sun_ahqjwnzgolcaoidx.tif,29,0.0833333333333333,0.0666666666666667,0.783333333333333,2765.239809958,2765.909490625,13,2765.322392625,2765.389763375,2765.92944925,2766.706122125,1,0.669680667000193
102,4,3,categorization,0,kitchen,SHINEd_labelme_rykdqxenmhulbdn.tif,63,0.0833333333333333,0.0666666666666667,0.933333333333333,2766.712016333,2767.408190791,9,2766.790401416,2766.851686,2767.420256875,2768.346927833,1,0.696174457999859
102,5,3,categorization,0,kitchen,SHINEd_sun_acgtpgfybqjmzeyw.tif,75,0.0833333333333333,0.0666666666666667,0.866666666666667,2768.352570583,2769.008130708,9,2768.430986958,2768.492152708,2769.027124833,2769.887130666,1,0.655560124999738
102,6,3,categorization,0,kitchen,SHINEd_sun_agubuxuukhzyzpdp.tif,88,0.0833333333333333,0.0666666666666667,1.11666666666667,2769.892029,2770.631600041,9,2769.970346375,2770.031553,2770.650011625,2771.760061916,1,0.73957104100009
102,7,3,categorization,0,bathroom,SHINEd_sun_ahaulkltgpkeeemi.tif,26,0.0833333333333333,0.0666666666666667,0.966666666666667,2771.772004375,2772.579262125,13,2771.853262625,2771.9222365,2772.594643666,2773.554675458,1,0.807257749999735
102,8,3,categorization,0,bathroom,SHINEd_sun_agrwbmhcpmfuwmsg.tif,24,0.0833333333333333,0.0666666666666667,1.78333333333333,2773.570967666,2774.296333708,13,2773.654306583,2773.712572208,2774.314645541,2776.091354083,1,0.725366042000132
102,9,3,categorization,0,bathroom,SHINEd_sun_aavhrsfjbserjtht.tif,13,0.0833333333333333,0.0666666666666667,1.55,2776.106206375,2776.804744916,13,2776.189791041,2776.256522416,2776.829655583,2778.373026,1,0.698538540999834
102,10,3,categorization,0,kitchen,SHINEd_sun_aypmqwcualkenuoe.tif,109,0.0833333333333333,0.0666666666666667,1.41666666666667,2778.39173125,2779.108488958,9,2778.475056541,2778.542473208,2779.1324005,2780.542452416,1,0.716757708000387
102,11,3,categorization,0,kitchen,SHINEd_sun_abftihopvusyfakt.tif,71,0.0833333333333333,0.0666666666666667,0.8,2780.55829575,2781.176724958,9,2780.640998583,2780.710148583,2781.200075833,2781.993467166,1,0.618429207999725
102,12,3,categorization,0,kitchen,SHINEd_sun_aadbddgrdsjugojn.tif,64,0.0833333333333333,0.0666666666666667,1.28333333333333,2782.010228958,2782.6478415,9,2782.093664583,2782.160751291,2782.662640041,2783.939339416,1,0.63761254200017
102,13,3,categorization,0,kitchen,SHINEd_sun_aegoxogugdkwpmpj.tif,80,0.0833333333333333,0.0666666666666667,1.66666666666667,2783.956751541,2784.567937958,9,2784.040232833,2784.106881541,2784.596771666,2786.256827583,1,0.611186417000226
102,14,3,categorization,0,kitchen,SHINEd_sun_adgqasybjyktddhj.tif,78,0.0833333333333333,0.0666666666666667,1.81666666666667,2786.273698,2786.904208958,9,2786.357045125,2786.424226125,2786.930956416,2788.741009,1,0.630510957999832
102,15,3,categorization,0,bathroom,SHINEd_sun_auzqhkafidnkrwmo.tif,54,0.0833333333333333,0.0666666666666667,1.35,2788.758341833,2789.411258458,9,2788.842322583,2788.908664791,2789.431687958,2790.77505875,0,0.652916624999762
102,16,3,categorization,0,bathroom,SHINEd_sun_axxbkopsgyouuebh.tif,58,0.0833333333333333,0.0666666666666667,0.916666666666667,2790.793327916,2791.460004833,13,2790.876649458,2790.943498458,2791.483468125,2792.393504333,1,0.666676916999677
102,17,3,categorization,0,bathroom,SHINEd_sun_acgyywnybuveqsro.tif,18,0.0833333333333333,0.0666666666666667,0.916666666666667,2792.4068475,2793.071783,13,2792.490526041,2792.555104416,2793.090241791,2794.0002465,1,0.664935499999956
102,18,3,categorization,0,kitchen,SHINEd_sun_aunzlwrbjumxhwdj.tif,103,0.0833333333333333,0.0666666666666667,1.31666666666667,2794.005075041,2794.623380291,9,2794.08352075,2794.14473475,2794.629785208,2795.939838583,1,0.618305250000049
102,19,3,categorization,0,bathroom,SHINEd_sun_acegryoqftbzowsg.tif,17,0.0833333333333333,0.0666666666666667,1.45,2795.95675325,2797.272414583,13,2796.039986791,2796.107053666,2797.297525,2798.740912791,1,1.31566133300021
102,20,3,categorization,0,bathroom,SHINEd_sun_aljolscmmzydegqp.tif,33,0.0833333333333333,0.0666666666666667,0.95,2798.759001791,2799.735751708,13,2798.84252325,2798.909324375,2799.765386458,2800.70872375,1,0.976749916999779
102,21,3,categorization,0,kitchen,SHINEd_sun_abrcnpqqhmjwekyf.tif,73,0.0833333333333333,0.0666666666666667,1.38333333333333,2800.714106583,2801.903163166,9,2800.79251525,2800.853566958,2801.922393875,2803.299104958,1,1.18905658299991
102,22,3,categorization,0,bathroom,SHINEd_sun_ahcvzmoyaycdoftf.tif,27,0.0833333333333333,0.0666666666666667,1.16666666666667,2803.312213041,2803.938135625,13,2803.395718291,2803.462477583,2803.969072791,2805.129113083,1,0.625922583999909
102,23,3,categorization,0,kitchen,SHINEd_sun_aymvwlarqodbwuoc.tif,108,0.0833333333333333,0.0666666666666667,1.61666666666667,2805.14658675,2806.261977541,13,2805.229831625,2805.297503333,2806.286957541,2807.8970055,0,1.11539079099975
102,24,3,categorization,0,bathroom,SHINEd_sun_agguqiubmwhqqunb.tif,22,0.0833333333333333,0.0666666666666667,1.38333333333333,2807.914451458,2809.001892458,13,2807.997946958,2808.064803041,2809.02090225,2810.397602583,1,1.08744100000013
102,25,3,categorization,0,kitchen,SHINEd_sun_akcjzhbbjlbogpdi.tif,99,0.0833333333333333,0.0666666666666667,1.78333333333333,2810.409984333,2811.054273458,9,2810.492859625,2810.560466333,2811.083905625,2812.86061725,1,0.644289124999887
102,26,3,categorization,0,kitchen,SHINEd_sun_admlmbcdswaszruo.tif,79,0.0833333333333333,0.0666666666666667,0.783333333333333,2812.873862,2813.490883208,9,2812.957430833,2813.024406708,2813.514786291,2814.291457041,1,0.617021208000097
102,27,3,categorization,0,kitchen,SHINEd_sun_aehawpgmrlhlvcow.tif,81,0.0833333333333333,0.0666666666666667,1.65,2814.297318208,2814.999136916,9,2814.37604675,2814.436954791,2815.0056135,2816.648996083,1,0.701818708000246
102,28,3,categorization,0,kitchen,SHINEd_sun_ahpczsiumwwocjkv.tif,92,0.0833333333333333,0.0666666666666667,1.86666666666667,2816.666786958,2817.3408315,9,2816.749754458,2816.817262083,2817.356560708,2819.216609916,1,0.674044542000047
102,29,3,categorization,0,kitchen,SHINEd_sun_awcpdzzznmweyyhv.tif,106,0.0833333333333333,0.0666666666666667,1.23333333333333,2819.234891625,2819.950120583,9,2819.318580791,2819.385218,2819.974631458,2821.201337625,1,0.715228958000353
102,30,3,categorization,0,bathroom,SHINEd_sun_acduarbnmmoglmiv.tif,16,0.0833333333333333,0.0666666666666667,0.7,2821.217969625,2821.990792666,13,2821.301945375,2821.368359166,2822.007542291,2822.700925625,1,0.77282304099981
102,31,3,categorization,0,kitchen,SHINEd_sun_auaiucuqpdausiva.tif,102,0.0833333333333333,0.0666666666666667,0.716666666666667,2822.715361958,2823.695747875,9,2822.798405541,2822.865693166,2823.701612208,2824.41161675,1,0.980385917000149
102,32,3,categorization,0,kitchen,SHINEd_sun_agzzivivdpnawacl.tif,89,0.0833333333333333,0.0666666666666667,1.05,2824.416603875,2825.279434708,9,2824.495098083,2824.556321083,2825.291618333,2826.334994666,1,0.862830832999862
102,33,3,categorization,0,bathroom,SHINEd_labelme_sfxiulhjbhlyiyt.tif,11,0.0833333333333333,0.0666666666666667,1.1,2826.344995041,2827.003186291,13,2826.426637666,2826.4938215,2827.015574333,2828.10894725,1,0.658191250000073
102,34,3,categorization,0,bathroom,SHINEd_sun_apynckhmoftszqoq.tif,47,0.0833333333333333,0.0666666666666667,1.13333333333333,2828.125867083,2828.77612625,13,2828.209327166,2828.27621675,2828.794964541,2829.921666083,1,0.650259167000058
102,35,3,categorization,0,kitchen,SHINEd_sun_azmutvzbxypaceni.tif,110,0.0833333333333333,0.0666666666666667,1.38333333333333,2829.931752958,2830.58104875,9,2830.015186125,2830.081933208,2830.605513791,2831.982230958,1,0.649295791999975
102,36,3,categorization,0,kitchen,SHINEd_sun_aqeaevwwwjoqhzvl.tif,101,0.0833333333333333,0.0666666666666667,1.5,2831.992856875,2832.66767325,9,2832.076033541,2832.143345625,2832.682171583,2834.175553375,1,0.674816374999864
102,37,3,categorization,0,bathroom,SHINEd_sun_apmqjbnwghzuhhzh.tif,46,0.0833333333333333,0.0666666666666667,1.61666666666667,2834.189856208,2834.75141125,13,2834.273278625,2834.339777083,2834.779964458,2836.390003041,1,0.561555041999782
102,38,3,categorization,0,kitchen,SHINEd_sun_axyyrmzcupyhlivc.tif,107,0.0833333333333333,0.0666666666666667,0.983333333333333,2836.40810575,2837.586791875,13,2836.491425333,2836.558669833,2837.615050166,2838.591722458,0,1.17868612500024
102,39,3,categorization,0,bathroom,SHINEd_sun_apkxzenqapsujocq.tif,45,0.0833333333333333,0.0666666666666667,1.3,2838.597281958,2839.183176791,13,2838.675696291,2838.737190541,2839.189024875,2840.482401333,1,0.585894832999657
102,40,3,categorization,0,bathroom,SHINEd_sun_asfwthctfqerjvxr.tif,49,0.0833333333333333,0.0666666666666667,1.03333333333333,2840.500023,2841.201841166,13,2840.583189458,2840.65050625,2841.223146458,2842.249818958,1,0.701818166000066
102,41,3,categorization,0,bathroom,SHINEd_sun_anryaplzeujmzfkd.tif,39,0.0833333333333333,0.0666666666666667,1.45,2842.255654375,2842.895436583,13,2842.334018333,2842.395274291,2842.913833166,2844.357206083,1,0.639782207999815
102,42,3,categorization,0,bathroom,SHINEd_sun_ausgutylgojavyoq.tif,53,0.0833333333333333,0.0666666666666667,1.23333333333333,2844.371719833,2844.981328541,13,2844.4554835,2844.521956208,2845.012175958,2846.238889,1,0.609608707999996
102,43,3,categorization,0,bathroom,SHINEd_sun_axyrejkiiaqiurjk.tif,59,0.0833333333333333,0.0666666666666667,1.26666666666667,2846.255990625,2847.206631708,13,2846.33868675,2846.406375083,2847.229375666,2848.489405833,1,0.950641082999937
102,44,3,categorization,0,bathroom,SHINEd_sun_abjtwfukuwddzted.tif,15,0.0833333333333333,0.0666666666666667,1.03333333333333,2848.506181583,2849.007955125,13,2848.58957925,2848.656843875,2849.02996025,2850.056678083,1,0.501773542000137
102,45,3,categorization,0,kitchen,SHINEd_sun_aarfiyshqohlwkmo.tif,67,0.0833333333333333,0.0666666666666667,1.31666666666667,2850.069104708,2850.703466916,9,2850.152518958,2850.219527875,2850.721396333,2852.031436083,1,0.634362207999857
102,46,3,categorization,0,bathroom,SHINEd_sun_amzlamotzwfkwjco.tif,37,0.0833333333333333,0.0666666666666667,1.7,2852.050170083,2852.864363791,13,2852.133280625,2852.200395291,2852.890474166,2854.583848791,1,0.814193707999948
102,47,3,categorization,0,kitchen,SHINEd_sun_ahdycvpopffkzzsu.tif,90,0.0833333333333333,0.0666666666666667,1.35,2854.60123975,2855.64810175,13,2854.6842115,2854.751501791,2855.67612675,2857.019501041,0,1.04686200000015
102,48,3,categorization,0,bathroom,SHINEd_sun_aqrpegblszgcoujh.tif,48,0.0833333333333333,0.0666666666666667,0.8,2857.035734541,2857.666932541,13,2857.119845708,2857.186752291,2857.694787583,2858.488164166,1,0.63119800000004
102,49,3,categorization,0,kitchen,SHINEd_sun_auticobqsbwgoppi.tif,104,0.0833333333333333,0.0666666666666667,0.766666666666667,2858.506959791,2859.271575125,9,2858.591042833,2858.658658625,2859.277971541,2860.037976708,1,0.7646153339997
102,50,3,categorization,0,bathroom,SHINEd_sun_avhrdrntsqrjzccq.tif,55,0.0833333333333333,0.0666666666666667,1.38333333333333,2860.042949916,2860.855933541,13,2860.121405666,2860.182577916,2860.867703541,2862.244409833,1,0.812983625000015
