sub_num,trial,block,task,is_practice,category,image,texture,duration,mask_dur,jitter,stim_time,time_of_resp,trial_response,mask_time,fix_time,jit_onset,trial_end,trial_accuracy,RT
102,1,15,categorization,0,kitchen,SHINEd_sun_ahspylgoovwmwvgk.tif,93,0.0666666666666667,0.0666666666666667,1.3,16915.0683725,16916.047374459,9,16915.130719875,16915.191341459,16916.059801042,16917.353172875,1,0.979001959000016
102,2,15,categorization,0,kitchen,SHINEd_sun_aapllqyqlykszopd.tif,66,0.0666666666666667,0.0666666666666667,1.25,16917.371543959,16918.135598459,13,16917.437701959,16917.504783542,16918.16102225,16919.404405584,0,0.764054499999475
102,3,15,categorization,0,kitchen,SHINEd_sun_agubuxuukhzyzpdp.tif,88,0.0666666666666667,0.0666666666666667,0.816666666666667,16919.422224584,16920.232010459,9,16919.488972542,16919.554911625,16920.261531959,16921.071574209,1,0.809785875000671
102,4,15,categorization,0,kitchen,SHINEd_sun_ahdycvpopffkzzsu.tif,90,0.0666666666666667,0.0666666666666667,0.85,16921.08827125,16922.030541167,13,16921.155212042,16921.221017709,16922.039959834,16922.883298834,0,0.942269917002704
102,5,15,categorization,0,bathroom,SHINEd_sun_atstyziqcmkahyxk.tif,51,0.0666666666666667,0.0666666666666667,1.06666666666667,16922.88904125,16923.695602209,13,16922.950874625,16923.011713667,16923.713846959,16924.773888167,1,0.806560959001217
102,6,15,categorization,0,bathroom,SHINEd_sun_aoybiabnpadelefl.tif,41,0.0666666666666667,0.0666666666666667,0.733333333333333,16924.784844084,16925.606799292,13,16924.849909709,16924.914199417,16925.637400459,16926.364109459,1,0.821955208000873
102,7,15,categorization,0,kitchen,SHINEd_sun_aixorpehvfykdynp.tif,95,0.0666666666666667,0.0666666666666667,1.83333333333333,16926.381083292,16927.335280584,9,16926.447644834,16926.514151375,16927.349534417,16929.176240042,1,0.954197292001481
102,8,15,categorization,0,kitchen,SHINEd_sun_aamedkxepzlwuxes.tif,65,0.0666666666666667,0.0666666666666667,0.733333333333333,16929.191474542,16930.567360334,9,16929.258234542,16929.324196375,16930.577435125,16931.304108084,1,1.37588579200019
102,9,15,categorization,0,bathroom,SHINEd_sun_amzlamotzwfkwjco.tif,37,0.0666666666666667,0.0666666666666667,1.56666666666667,16931.309591542,16932.023326334,13,16931.371399667,16931.432396084,16932.034170167,16933.594233875,1,0.713734791999741
102,10,15,categorization,0,bathroom,SHINEd_sun_abapwbhyhkfixyex.tif,14,0.0666666666666667,0.0666666666666667,1.93333333333333,16933.613570417,16934.464785417,9,16933.680327459,16933.74643825,16934.486284,16936.412997125,0,0.851214999998774
102,11,15,categorization,0,kitchen,SHINEd_sun_auticobqsbwgoppi.tif,104,0.0666666666666667,0.0666666666666667,1.48333333333333,16936.431558917,16938.894541959,9,16936.498463167,16936.564871167,16938.901192,16940.377893917,1,2.46298304200172
102,12,15,categorization,0,kitchen,SHINEd_sun_abftihopvusyfakt.tif,71,0.0666666666666667,0.0666666666666667,0.916666666666667,16940.395679584,16941.3241395,9,16940.462581042,16940.528468125,16941.352062834,16942.2620695,1,0.928459916001884
102,13,15,categorization,0,bathroom,SHINEd_sun_akiytfaagpdsphgz.tif,31,0.0666666666666667,0.0666666666666667,1.5,16942.267855417,16943.167365584,9,16942.329611417,16942.390601917,16943.175813834,16944.66920125,0,0.899510166997061
102,14,15,categorization,0,bathroom,SHINEd_sun_alkosphxlxwjwgjd.tif,34,0.0666666666666667,0.0666666666666667,1.1,16944.687004459,16945.635189375,13,16944.753686917,16944.820124834,16945.660159917,16946.753552375,1,0.948184916000173
102,15,15,categorization,0,kitchen,SHINEd_sun_aehawpgmrlhlvcow.tif,81,0.0666666666666667,0.0666666666666667,0.983333333333333,16946.76694425,16947.561368209,9,16946.831633625,16946.899680042,16947.589593,16948.566307959,1,0.794423958999687
102,16,15,categorization,0,bathroom,SHINEd_sun_ahaulkltgpkeeemi.tif,26,0.0666666666666667,0.0666666666666667,1.7,16948.584156584,16949.271088875,13,16948.650878584,16948.715432,16949.284564459,16950.9779565,1,0.686932291002449
102,17,15,categorization,0,bathroom,SHINEd_sun_asfwthctfqerjvxr.tif,49,0.0666666666666667,0.0666666666666667,1.58333333333333,16951.001309334,16952.054339709,13,16951.068118125,16951.133894209,16952.073577209,16953.65028475,1,1.05303037500198
102,18,15,categorization,0,bathroom,SHINEd_sun_aspsyogrekjtfozg.tif,50,0.0666666666666667,0.0666666666666667,0.933333333333333,16953.668138084,16954.438786,13,16953.734164875,16953.800703542,16954.456862375,16955.38353375,1,0.770647916000598
102,19,15,categorization,0,bathroom,SHINEd_sun_aljolscmmzydegqp.tif,33,0.0666666666666667,0.0666666666666667,0.916666666666667,16955.389178084,16956.494832625,13,16955.450773084,16955.511866709,16956.513667292,16957.423672792,1,1.10565454100288
102,20,15,categorization,0,bathroom,SHINEd_sun_alotolagknyrgtsk.tif,35,0.0666666666666667,0.0666666666666667,1.08333333333333,16957.429215167,16958.383205542,13,16957.490964709,16957.551874959,16958.386968334,16959.463676959,1,0.953990374997375
102,21,15,categorization,0,bathroom,SHINEd_sun_ajlawzvmubibwbpy.tif,30,0.0666666666666667,0.0666666666666667,0.783333333333333,16959.474711292,16960.436208459,13,16959.539357417,16959.607425584,16960.463966625,16961.240689709,1,0.961497166998015
102,22,15,categorization,0,kitchen,SHINEd_sun_aunzlwrbjumxhwdj.tif,103,0.0666666666666667,0.0666666666666667,1.01666666666667,16961.257000625,16962.374438,9,16961.323719334,16961.389792334,16962.391747667,16963.401802459,1,1.11743737500001
102,23,15,categorization,0,kitchen,SHINEd_sun_agorklincwxrdtga.tif,87,0.0666666666666667,0.0666666666666667,1.15,16963.413963542,16964.103443375,9,16963.479700792,16963.545407792,16964.117772417,16965.261159542,1,0.689479832999496
102,24,15,categorization,0,bathroom,SHINEd_sun_aghyqhbptboemmoq.tif,23,0.0666666666666667,0.0666666666666667,1.38333333333333,16965.279439417,16965.983044584,13,16965.34588825,16965.411850584,16965.997832334,16967.374536875,1,0.703605167000205
102,25,15,categorization,0,kitchen,SHINEd_sun_acxkpeoqbwcxfvip.tif,77,0.0666666666666667,0.0666666666666667,0.75,16967.393598625,16968.63219425,9,16967.460314125,16967.526514584,16968.650148084,16969.393485917,1,1.23859562500002
102,26,15,categorization,0,bathroom,SHINEd_sun_awnqiikzaispgmwo.tif,56,0.0666666666666667,0.0666666666666667,0.816666666666667,16969.3989335,16972.014929125,13,16969.460742875,16969.521616625,16972.023982209,16972.833987667,1,2.61599562500123
102,27,15,categorization,0,bathroom,SHINEd_sun_apkxzenqapsujocq.tif,45,0.0666666666666667,0.0666666666666667,1.01666666666667,16972.839605792,16973.527015,13,16972.901458584,16972.96227575,16973.531229292,16974.541283875,1,0.687409207999735
102,28,15,categorization,0,kitchen,SHINEd_sun_aegoxogugdkwpmpj.tif,80,0.0666666666666667,0.0666666666666667,1.11666666666667,16974.550528709,16975.252571667,9,16974.615454042,16974.681715834,16975.271620667,16976.381659417,1,0.702042957997037
102,29,15,categorization,0,kitchen,SHINEd_sun_agzzivivdpnawacl.tif,89,0.0666666666666667,0.0666666666666667,1.9,16976.402368542,16977.43078825,13,16976.468965584,16976.535053417,16977.437195875,16979.330567125,0,1.028419708
102,30,15,categorization,0,kitchen,SHINEd_sun_amjjdeyrggfqgmom.tif,100,0.0666666666666667,0.0666666666666667,1.75,16979.35120075,16980.216211125,13,16979.417352375,16979.484294167,16980.240908417,16981.984303959,0,0.865010375000566
102,31,15,categorization,0,kitchen,SHINEd_sun_azmutvzbxypaceni.tif,110,0.0666666666666667,0.0666666666666667,1.31666666666667,16982.00059,16982.822795459,13,16982.067751,16982.133503125,16982.839678625,16984.149725709,0,0.822205459000543
102,32,15,categorization,0,bathroom,SHINEd_sun_afcoljnjfoxjtgja.tif,20,0.0666666666666667,0.0666666666666667,1.58333333333333,16984.16801325,16984.911386,13,16984.234742,16984.295668709,16984.935809834,16986.512532375,1,0.743372749999253
102,33,15,categorization,0,kitchen,SHINEd_sun_awcpdzzznmweyyhv.tif,106,0.0666666666666667,0.0666666666666667,0.716666666666667,16986.530267,16987.723206167,9,16986.596954875,16986.662943709,16987.753077667,16988.463082917,1,1.1929391670019
102,34,15,categorization,0,kitchen,SHINEd_sun_acfmftudsenhrfhy.tif,74,0.0666666666666667,0.0666666666666667,1.05,16988.46836075,16989.118864709,9,16988.530253625,16988.591097792,16989.126244375,16990.169617959,1,0.650503958997433
102,35,15,categorization,0,kitchen,SHINEd_sun_acgtpgfybqjmzeyw.tif,75,0.0666666666666667,0.0666666666666667,1.81666666666667,16990.183439375,16990.89183575,13,16990.248398834,16990.314746709,16990.921700709,16992.731750875,0,0.70839637500103
102,36,15,categorization,0,bathroom,SHINEd_sun_anryaplzeujmzfkd.tif,39,0.0666666666666667,0.0666666666666667,1.25,16992.749567584,16994.654673834,13,16992.816381459,16992.882852125,16994.668985417,16995.912355667,1,1.90510625000024
102,37,15,categorization,0,bathroom,SHINEd_sun_aunuadmjocsddsrl.tif,52,0.0666666666666667,0.0666666666666667,0.733333333333333,16995.929985667,16996.71549925,13,16995.998117042,16996.06309175,16996.73651275,16997.463213875,1,0.785513582999556
102,38,15,categorization,0,kitchen,SHINEd_sun_ajcbwwvdlsvjyzje.tif,96,0.0666666666666667,0.0666666666666667,1.31666666666667,16997.476590375,16998.143334459,9,16997.54320525,16997.609447042,16998.161926459,16999.471970417,1,0.66674408399922
102,39,15,categorization,0,bathroom,SHINEd_sun_auzqhkafidnkrwmo.tif,54,0.0666666666666667,0.0666666666666667,1,16999.489935292,17000.368019834,9,16999.556752292,16999.622290959,17000.395913292,17001.389251,0,0.878084542000579
102,40,15,categorization,0,kitchen,SHINEd_sun_afuyedyxivkhecmu.tif,85,0.0666666666666667,0.0666666666666667,1.16666666666667,17001.395249875,17002.710503834,9,17001.45707875,17001.517806709,17002.719988125,17003.880045042,1,1.31525395900098
102,41,15,categorization,0,bathroom,SHINEd_sun_acgyywnybuveqsro.tif,18,0.0666666666666667,0.0666666666666667,0.916666666666667,17003.889257625,17004.563908667,13,17003.955722959,17004.022153584,17004.576750542,17005.486786834,1,0.674651042001642
102,42,15,categorization,0,kitchen,SHINEd_sun_abrcnpqqhmjwekyf.tif,73,0.0666666666666667,0.0666666666666667,0.8,17005.50297375,17006.43834,9,17005.569599334,17005.635718375,17006.45431875,17007.247655917,1,0.935366249999788
102,43,15,categorization,0,bathroom,SHINEd_sun_axyrejkiiaqiurjk.tif,59,0.0666666666666667,0.0666666666666667,1,17007.2528945,17007.951252625,9,17007.314793917,17007.37549675,17007.960621167,17008.953959125,0,0.698358124998776
102,44,15,categorization,0,bathroom,SHINEd_sun_aapitsgbtktqubfy.tif,12,0.0666666666666667,0.0666666666666667,0.766666666666667,17008.95983325,17009.791116667,13,17009.021569209,17009.082541834,17009.801106,17010.561111334,1,0.831283416999213
102,45,15,categorization,0,kitchen,SHINEd_sun_aadbddgrdsjugojn.tif,64,0.0666666666666667,0.0666666666666667,1.03333333333333,17010.566784125,17011.487147334,9,17010.628733375,17010.689500042,17011.49132225,17012.518034959,1,0.920363208999333
102,46,15,categorization,0,kitchen,SHINEd_sun_akchetnepxlcxhsu.tif,98,0.0666666666666667,0.0666666666666667,1.81666666666667,17012.5286215,17013.304325459,13,17012.593426834,17012.660061834,17013.332848084,17015.142907,0,0.775703958999657
102,47,15,categorization,0,kitchen,SHINEd_sun_abpwyqmlzafvklqo.tif,72,0.0666666666666667,0.0666666666666667,1.21666666666667,17015.161669834,17015.944766542,9,17015.228312292,17015.294332,17015.9675655,17017.177622084,1,0.783096708000812
102,48,15,categorization,0,bathroom,SHINEd_sun_axxbkopsgyouuebh.tif,58,0.0666666666666667,0.0666666666666667,0.866666666666667,17017.195301834,17018.067782625,13,17017.262246459,17017.3278015,17018.084024417,17018.94406675,1,0.872480791000271
102,49,15,categorization,0,bathroom,SHINEd_sun_axldvoqbuvuggfmq.tif,57,0.0666666666666667,0.0666666666666667,1.46666666666667,17018.960838625,17019.9741595,13,17019.027928209,17019.092213875,17019.977722667,17021.437776125,1,1.01332087500123
102,50,15,categorization,0,kitchen,SHINEd_sun_aaxxjlsuzvqlgylf.tif,68,0.0666666666666667,0.0666666666666667,1.46666666666667,17021.456026084,17022.409568625,13,17021.522521,17021.589077167,17022.428468917,17023.888503459,0,0.953542540999479
