sub_num,trial,block,task,is_practice,category,image,texture,duration,mask_dur,jitter,stim_time,time_of_resp,trial_response,mask_time,fix_time,jit_onset,trial_end,trial_accuracy,RT
117,1,19,categorization,0,bathroom,SHINEd_sun_amzlamotzwfkwjco.tif,37,0.0666666666666667,0.0666666666666667,1.48333333333333,15957.723856958,15958.640748791,9,15957.786332375,15957.846463333,15958.648571958,15960.125277791,0,0.916891832999681
117,2,19,categorization,0,kitchen,SHINEd_labelme_brsyyvweiuaazfr.tif,61,0.0666666666666667,0.0666666666666667,0.783333333333333,15960.142899958,15960.773150041,13,15960.209960458,15960.27575275,15960.798926416,15961.57562975,0,0.630250082998828
117,3,19,categorization,0,bathroom,SHINEd_sun_axxbkopsgyouuebh.tif,58,0.0666666666666667,0.0666666666666667,1.7,15961.591872,15962.185152416,13,15961.65844275,15961.724780625,15962.193911875,15963.887281,1,0.593280415998379
117,4,19,categorization,0,bathroom,SHINEd_sun_aqrpegblszgcoujh.tif,48,0.0666666666666667,0.0666666666666667,1.93333333333333,15963.90404625,15964.736040125,9,15963.970562416,15964.036971541,15964.760492708,15966.68719025,0,0.83199387500099
117,5,19,categorization,0,bathroom,SHINEd_sun_ahijqszoswveeyji.tif,28,0.0666666666666667,0.0666666666666667,1.73333333333333,15966.705064041,15967.622502791,9,15966.771752541,15966.8380485,15967.644626958,15969.371334958,0,0.917438750000656
117,6,19,categorization,0,bathroom,SHINEd_sun_axyrejkiiaqiurjk.tif,59,0.0666666666666667,0.0666666666666667,0.866666666666667,15969.386203583,15970.1508525,13,15969.452971833,15969.519070666,15970.175613708,15971.035618416,1,0.764648917000159
117,7,19,categorization,0,bathroom,SHINEd_sun_acduarbnmmoglmiv.tif,16,0.0666666666666667,0.0666666666666667,1.85,15971.041398541,15971.94418675,13,15971.103027208,15971.164099041,15971.949291,15973.792664625,1,0.902788209001301
117,8,19,categorization,0,kitchen,SHINEd_sun_aqeaevwwwjoqhzvl.tif,101,0.0666666666666667,0.0666666666666667,0.966666666666667,15973.81146,15974.810362166,13,15973.878227958,15973.944299625,15974.834341,15975.794346208,0,0.998902165998516
117,9,19,categorization,0,bathroom,SHINEd_sun_ausgutylgojavyoq.tif,53,0.0666666666666667,0.0666666666666667,0.733333333333333,15975.800311916,15976.424316333,13,15975.862141583,15975.923056125,15976.441460916,15977.168133208,1,0.624004416999014
117,10,19,categorization,0,kitchen,SHINEd_sun_ajcbwwvdlsvjyzje.tif,96,0.0666666666666667,0.0666666666666667,0.733333333333333,15977.173730291,15977.840429541,13,15977.235301833,15977.29649225,15977.84852075,15978.575193166,0,0.66669924999951
117,11,19,categorization,0,bathroom,SHINEd_sun_auzqhkafidnkrwmo.tif,54,0.0666666666666667,0.0666666666666667,1.93333333333333,15978.581767916,15979.272824666,9,15978.643421958,15978.704384083,15979.289546791,15981.216251875,0,0.691056749999916
117,12,19,categorization,0,bathroom,SHINEd_sun_aggnnqpdorgxpvce.tif,21,0.0666666666666667,0.0666666666666667,1.1,15981.228740208,15981.948835083,9,15981.293532708,15981.361494083,15981.967128416,15983.060516083,0,0.720094874999631
117,13,19,categorization,0,kitchen,SHINEd_sun_afuyedyxivkhecmu.tif,85,0.0666666666666667,0.0666666666666667,1.8,15983.07039675,15983.788823458,9,15983.135135375,15983.20305925,15983.809581,15985.602953541,1,0.718426708001061
117,14,19,categorization,0,kitchen,SHINEd_sun_aehawpgmrlhlvcow.tif,81,0.0666666666666667,0.0666666666666667,0.733333333333333,15985.620555541,15986.459979583,9,15985.687355,15985.753248833,15986.475746125,15987.2024205,1,0.839424042000246
117,15,19,categorization,0,bathroom,SHINEd_sun_aavhrsfjbserjtht.tif,13,0.0666666666666667,0.0666666666666667,1.5,15987.20846025,15987.808661,13,15987.270241375,15987.331197458,15987.816381833,15989.309761875,1,0.600200749999203
117,16,19,categorization,0,kitchen,SHINEd_sun_akchetnepxlcxhsu.tif,98,0.0666666666666667,0.0666666666666667,0.8,15989.321053791,15990.031865583,13,15989.388286458,15989.453757041,15990.060227416,15990.853568041,0,0.710811791999731
117,17,19,categorization,0,kitchen,SHINEd_sun_abftihopvusyfakt.tif,71,0.0666666666666667,0.0666666666666667,0.95,15990.859478708,15991.440549916,13,15990.921135375,15990.982067916,15991.450459083,15992.393797125,0,0.581071208000139
117,18,19,categorization,0,bathroom,SHINEd_sun_axldvoqbuvuggfmq.tif,57,0.0666666666666667,0.0666666666666667,1.1,15992.398568916,15993.104415833,13,15992.460290875,15992.521226958,15993.123020666,15994.216392,1,0.705846917000599
117,19,19,categorization,0,kitchen,SHINEd_sun_acwjdupvyjsugpay.tif,76,0.0666666666666667,0.0666666666666667,1.63333333333333,15994.22560975,15995.037718416,13,15994.290639083,15994.35809925,15995.064535875,15996.691231583,0,0.812108666001222
117,20,19,categorization,0,kitchen,SHINEd_sun_avszsnwsbuqfgzbn.tif,105,0.0666666666666667,0.0666666666666667,1.71666666666667,15996.705290125,15997.478196708,9,15996.7717255,15996.83853775,15997.49441825,15999.204455666,1,0.772906582998985
117,21,19,categorization,0,kitchen,SHINEd_sun_abpwyqmlzafvklqo.tif,72,0.0666666666666667,0.0666666666666667,1.43333333333333,15999.221708,15999.864582791,9,15999.286708791,15999.354475916,15999.8758545,16001.302554791,1,0.642874791001304
117,22,19,categorization,0,kitchen,SHINEd_sun_ajkqhtgcbgpcwrwn.tif,97,0.0666666666666667,0.0666666666666667,0.966666666666667,16001.312715416,16001.899479583,9,16001.379090291,16001.44565725,16001.918590458,16002.878621333,1,0.586764167001093
117,23,19,categorization,0,bathroom,SHINEd_sun_asfwthctfqerjvxr.tif,49,0.0666666666666667,0.0666666666666667,1.61666666666667,16002.893756833,16003.464820041,9,16002.955751333,16003.016447875,16003.468251,16005.078290541,0,0.571063207999032
117,24,19,categorization,0,kitchen,SHINEd_sun_aaxxjlsuzvqlgylf.tif,68,0.0666666666666667,0.0666666666666667,0.866666666666667,16005.095357958,16005.847905416,9,16005.161277916,16005.226890041,16005.866313625,16006.72632025,1,0.752547457999754
117,25,19,categorization,0,bathroom,SHINEd_sun_alotolagknyrgtsk.tif,35,0.0666666666666667,0.0666666666666667,1.25,16006.732153041,16007.488745875,13,16006.793831833,16006.854765833,16007.506504166,16008.749888208,1,0.756592833999093
117,26,19,categorization,0,bathroom,SHINEd_sun_ajlawzvmubibwbpy.tif,30,0.0666666666666667,0.0666666666666667,0.716666666666667,16008.766933625,16009.655941708,9,16008.833724916,16008.899623875,16009.671679708,16010.381734833,0,0.88900808300059
117,27,19,categorization,0,kitchen,SHINEd_sun_aarfiyshqohlwkmo.tif,67,0.0666666666666667,0.0666666666666667,1.71666666666667,16010.401123666,16011.128120625,9,16010.467836208,16010.534014583,16011.13654875,16012.846592583,1,0.726996958999734
117,28,19,categorization,0,bathroom,SHINEd_sun_apkruvsevgegsdwp.tif,44,0.0666666666666667,0.0666666666666667,1.31666666666667,16012.866827458,16013.622466208,13,16012.933501333,16012.999539375,16013.638810875,16014.948859458,1,0.755638750000799
117,29,19,categorization,0,bathroom,SHINEd_sun_aapitsgbtktqubfy.tif,12,0.0666666666666667,0.0666666666666667,0.9,16014.96665925,16015.788791708,9,16015.033602125,16015.099803208,16015.80610275,16016.699486,0,0.822132458000851
117,30,19,categorization,0,bathroom,SHINEd_sun_alkosphxlxwjwgjd.tif,34,0.0666666666666667,0.0666666666666667,1,16016.71659575,16017.409047166,13,16016.779148875,16016.839349083,16017.424478958,16018.417815666,1,0.69245141600004
117,31,19,categorization,0,kitchen,SHINEd_sun_agubuxuukhzyzpdp.tif,88,0.0666666666666667,0.0666666666666667,1.15,16018.423629541,16019.400961833,13,16018.485347458,16018.546219208,16019.414668833,16020.5580425,0,0.977332292000938
117,32,19,categorization,0,kitchen,SHINEd_labelme_rykdqxenmhulbdn.tif,63,0.0666666666666667,0.0666666666666667,1.55,16020.567117125,16021.56023425,13,16020.633838083,16020.699881166,16021.589508708,16023.13287725,0,0.993117125000936
117,33,19,categorization,0,bathroom,SHINEd_sun_abjtwfukuwddzted.tif,15,0.0666666666666667,0.0666666666666667,1.13333333333333,16023.153353208,16023.988264916,9,16023.219085083,16023.283476916,16024.007240958,16025.133943208,0,0.834911708001528
117,34,19,categorization,0,kitchen,SHINEd_sun_azmutvzbxypaceni.tif,110,0.0666666666666667,0.0666666666666667,1.35,16025.144368125,16026.008696916,9,16025.209921166,16025.276108,16026.03359175,16027.376960083,1,0.864328790999934
117,35,19,categorization,0,kitchen,SHINEd_sun_abrcnpqqhmjwekyf.tif,73,0.0666666666666667,0.0666666666666667,0.7,16027.396621041,16028.181836,9,16027.465864958,16027.530425,16028.204164416,16028.897551416,1,0.785214958999859
117,36,19,categorization,0,kitchen,SHINEd_sun_amjjdeyrggfqgmom.tif,100,0.0666666666666667,0.0666666666666667,0.916666666666667,16028.916491333,16030.233058458,9,16028.9832135,16029.049997958,16030.252508,16031.162514708,1,1.31656712499898
117,37,19,categorization,0,bathroom,SHINEd_sun_aleqenyvunhactkl.tif,32,0.0666666666666667,0.0666666666666667,1.38333333333333,16031.168025625,16031.920708625,13,16031.229792125,16031.290712041,16031.92592475,16033.302630583,1,0.752683000000616
117,38,19,categorization,0,kitchen,SHINEd_sun_acgtpgfybqjmzeyw.tif,75,0.0666666666666667,0.0666666666666667,1.98333333333333,16033.315089166,16034.205755625,13,16033.3823295,16033.448487791,16034.221309833,16036.198008291,0,0.890666458999476
117,39,19,categorization,0,kitchen,SHINEd_sun_aunzlwrbjumxhwdj.tif,103,0.0666666666666667,0.0666666666666667,1.21666666666667,16036.217308041,16036.923462208,9,16036.284231875,16036.350359458,16036.940246833,16038.150291208,1,0.706154167000932
117,40,19,categorization,0,bathroom,SHINEd_sun_agguqiubmwhqqunb.tif,22,0.0666666666666667,0.0666666666666667,0.883333333333333,16038.1649715,16038.752916875,9,16038.232195041,16038.297876791,16038.771169166,16039.647896458,0,0.587945375000345
117,41,19,categorization,0,bathroom,SHINEd_sun_acegryoqftbzowsg.tif,17,0.0666666666666667,0.0666666666666667,1.36666666666667,16039.65905725,16040.848200375,9,16039.726040708,16039.792094125,16040.861236416,16042.221268375,0,1.18914312499874
117,42,19,categorization,0,kitchen,SHINEd_sun_akcjzhbbjlbogpdi.tif,99,0.0666666666666667,0.0666666666666667,1.78333333333333,16042.238920875,16043.0845625,9,16042.306214041,16042.372138541,16043.111959666,16044.888666791,1,0.845641625001008
117,43,19,categorization,0,kitchen,SHINEd_sun_aadbddgrdsjugojn.tif,64,0.0666666666666667,0.0666666666666667,1.53333333333333,16044.907193166,16046.115669541,9,16044.974125625,16045.041635708,16046.13102075,16047.657741541,1,1.20847637500083
117,44,19,categorization,0,kitchen,SHINEd_sun_auaiucuqpdausiva.tif,102,0.0666666666666667,0.0666666666666667,0.8,16047.675727458,16048.356638708,9,16047.742848208,16047.808825541,16048.381947875,16049.175315875,1,0.680911250001373
117,45,19,categorization,0,kitchen,SHINEd_sun_acfmftudsenhrfhy.tif,74,0.0666666666666667,0.0666666666666667,1,16049.190915,16050.952750875,9,16049.253424375,16049.313711625,16050.965924916,16051.959264375,1,1.76183587500054
117,46,19,categorization,0,bathroom,SHINEd_sun_aljolscmmzydegqp.tif,33,0.0666666666666667,0.0666666666666667,1.01666666666667,16051.965012375,16053.720025541,9,16052.026607083,16052.087661625,16053.739751916,16054.749791708,0,1.75501316600094
117,47,19,categorization,0,bathroom,SHINEd_labelme_sfxiulhjbhlyiyt.tif,11,0.0666666666666667,0.0666666666666667,1.83333333333333,16054.760537541,16055.473752875,13,16054.825711458,16054.892018166,16055.49865975,16057.325376583,1,0.71321533399896
117,48,19,categorization,0,kitchen,SHINEd_sun_ahljzhgcdpomplvg.tif,91,0.0666666666666667,0.0666666666666667,1.03333333333333,16057.338577,16057.850335875,13,16057.405351208,16057.4712865,16057.87750725,16058.904207083,0,0.511758874999941
117,49,19,categorization,0,kitchen,SHINEd_sun_aamedkxepzlwuxes.tif,65,0.0666666666666667,0.0666666666666667,1.16666666666667,16058.915314208,16059.584035458,13,16058.978030833,16059.03799475,16059.589819875,16060.749872041,0,0.66872125000009
117,50,19,categorization,0,bathroom,SHINEd_sun_aoybiabnpadelefl.tif,41,0.0666666666666667,0.0666666666666667,1,16060.759180833,16061.441652291,13,16060.825705916,16060.891857958,16061.46473875,16062.45810575,1,0.682471457999782
