sub_num,trial,block,task,is_practice,category,image,texture,duration,mask_dur,jitter,stim_time,time_of_resp,trial_response,mask_time,fix_time,jit_onset,trial_end,trial_accuracy,RT
117,1,11,categorization,0,bathroom,SHINEd_sun_atstyziqcmkahyxk.tif,51,0.0666666666666667,0.0666666666666667,0.8,14966.270389916,14967.197037958,13,14966.332974166,14966.393086375,14967.211616083,14968.004954541,1,0.926648041999215
117,2,11,categorization,0,bathroom,SHINEd_sun_axldvoqbuvuggfmq.tif,57,0.0666666666666667,0.0666666666666667,1.13333333333333,14968.010116208,14968.66845225,13,14968.071693875,14968.13291525,14968.6845705,14969.81127775,1,0.658336041999064
117,3,11,categorization,0,kitchen,SHINEd_sun_abdenxonkemggwsq.tif,69,0.0666666666666667,0.0666666666666667,1.05,14969.82159775,14970.581312041,13,14969.886792958,14969.954501541,14970.611146583,14971.654532791,0,0.759714290999909
117,4,11,categorization,0,kitchen,SHINEd_sun_aggjlwcdjsjcaemh.tif,86,0.0666666666666667,0.0666666666666667,1.05,14971.67128475,14972.332911916,13,14971.738028291,14971.804120333,14972.339638916,14973.383013125,0,0.661627166000471
117,5,11,categorization,0,bathroom,SHINEd_sun_avhrdrntsqrjzccq.tif,55,0.0666666666666667,0.0666666666666667,1.63333333333333,14973.393390083,14974.173537208,9,14973.457794166,14973.524760041,14974.197499375,14975.824197791,0,0.78014712500044
117,6,11,categorization,0,bathroom,SHINEd_sun_ahqjwnzgolcaoidx.tif,29,0.0666666666666667,0.0666666666666667,0.85,14975.84248775,14976.583594291,13,14975.909178,14975.97516,14976.597317375,14977.440698458,1,0.741106540999681
117,7,11,categorization,0,kitchen,SHINEd_sun_ahywdevtimnqcsln.tif,94,0.0666666666666667,0.0666666666666667,1.5,14977.456877583,14978.236316833,13,14977.523512416,14977.5897935,14978.241714083,14979.735087333,0,0.779439249999996
117,8,11,categorization,0,kitchen,SHINEd_sun_aqeaevwwwjoqhzvl.tif,101,0.0666666666666667,0.0666666666666667,1.46666666666667,14979.756068041,14980.534718208,13,14979.822898,14979.888864958,14980.562045916,14982.022085541,0,0.778650166999796
117,9,11,categorization,0,bathroom,SHINEd_sun_akiytfaagpdsphgz.tif,31,0.0666666666666667,0.0666666666666667,1.06666666666667,14982.039903166,14982.676910291,13,14982.106530208,14982.172980166,14982.696154208,14983.756201416,1,0.637007125000309
117,10,11,categorization,0,bathroom,SHINEd_sun_agyqfjcfkdcydepw.tif,25,0.0666666666666667,0.0666666666666667,0.8,14983.766753916,14984.513152041,13,14983.831452583,14983.899658708,14984.5394985,14985.332880416,1,0.746398125000269
117,11,11,categorization,0,kitchen,SHINEd_sun_akcjzhbbjlbogpdi.tif,99,0.0666666666666667,0.0666666666666667,1.41666666666667,14985.349830375,14986.020921375,13,14985.416432625,14985.482546291,14986.034758208,14987.444798666,0,0.67109100000016
117,12,11,categorization,0,kitchen,SHINEd_sun_aymvwlarqodbwuoc.tif,108,0.0666666666666667,0.0666666666666667,1.71666666666667,14987.463694833,14988.160778875,13,14987.530734083,14987.596272666,14988.186007958,14989.896055458,0,0.697084041999915
117,13,11,categorization,0,kitchen,SHINEd_sun_agorklincwxrdtga.tif,87,0.0666666666666667,0.0666666666666667,0.833333333333333,14989.913489208,14990.434618125,9,14989.980058083,14990.046861625,14990.452956708,14991.279628041,1,0.521128917000169
117,14,11,categorization,0,bathroom,SHINEd_sun_aavhrsfjbserjtht.tif,13,0.0666666666666667,0.0666666666666667,0.783333333333333,14991.286560291,14992.18080025,13,14991.348381916,14991.409281125,14992.194450833,14992.971121125,1,0.894239958999606
117,15,11,categorization,0,bathroom,SHINEd_labelme_sfxiulhjbhlyiyt.tif,11,0.0666666666666667,0.0666666666666667,0.866666666666667,14992.976812208,14993.700778625,13,14993.038472375,14993.099441083,14993.717938583,14994.577944375,1,0.723966416999247
117,16,11,categorization,0,bathroom,SHINEd_sun_aggnnqpdorgxpvce.tif,21,0.0666666666666667,0.0666666666666667,1.08333333333333,14994.583565041,14995.132838291,9,14994.645174083,14994.706349416,14995.14145,14996.218170875,0,0.549273249998805
117,17,11,categorization,0,bathroom,SHINEd_sun_asfwthctfqerjvxr.tif,49,0.0666666666666667,0.0666666666666667,1.1,14996.229027166,14996.908879208,9,14996.293188416,14996.361299666,14996.934550583,14998.027922833,0,0.679852041999766
117,18,11,categorization,0,kitchen,SHINEd_sun_aeqdocilnnpuvuhx.tif,83,0.0666666666666667,0.0666666666666667,1.5,14998.04469925,14998.684183083,9,14998.110998958,14998.1775805,14998.69624025,15000.18960975,1,0.639483832999758
117,19,11,categorization,0,kitchen,SHINEd_sun_aaxxjlsuzvqlgylf.tif,68,0.0666666666666667,0.0666666666666667,0.833333333333333,15000.206988041,15000.856322833,9,15000.273499,15000.340362666,15000.880548375,15001.707247083,1,0.649334792000445
117,20,11,categorization,0,kitchen,SHINEd_sun_awcpdzzznmweyyhv.tif,106,0.0666666666666667,0.0666666666666667,1.76666666666667,15001.723168208,15002.740768208,13,15001.787607083,15001.847145708,15002.749055291,15004.509100125,0,1.01759999999922
117,21,11,categorization,0,kitchen,SHINEd_sun_adgqasybjyktddhj.tif,78,0.0666666666666667,0.0666666666666667,1.18333333333333,15004.526578458,15005.498467291,9,15004.593033375,15004.659305458,15005.515263666,15006.691979583,1,0.971888832998957
117,22,11,categorization,0,kitchen,SHINEd_sun_aenotlpyftoioydp.tif,82,0.0666666666666667,0.0666666666666667,0.933333333333333,15006.703122416,15007.359511958,9,15006.769833833,15006.83589825,15007.375100833,15008.301802625,1,0.656389542000397
117,23,11,categorization,0,bathroom,SHINEd_sun_ajlawzvmubibwbpy.tif,30,0.0666666666666667,0.0666666666666667,0.716666666666667,15008.318048208,15009.156844625,9,15008.384458666,15008.450822625,15009.169454875,15009.879459791,0,0.838796416999685
117,24,11,categorization,0,kitchen,SHINEd_sun_ahspylgoovwmwvgk.tif,93,0.0666666666666667,0.0666666666666667,1.25,15009.886305166,15010.884277416,9,15009.9479955,15010.0088775,15010.894030375,15012.137393708,1,0.997972250001112
117,25,11,categorization,0,bathroom,SHINEd_sun_apmqjbnwghzuhhzh.tif,46,0.0666666666666667,0.0666666666666667,0.866666666666667,15012.155249833,15013.505305125,9,15012.221490666,15012.288067041,15013.531515416,15014.391521208,0,1.35005529199952
117,26,11,categorization,0,kitchen,SHINEd_sun_abpwyqmlzafvklqo.tif,72,0.0666666666666667,0.0666666666666667,1.08333333333333,15014.397246875,15015.212984333,9,15014.459047416,15014.519898208,15015.221668916,15016.298377416,1,0.815737458000513
117,27,11,categorization,0,bathroom,SHINEd_sun_aljolscmmzydegqp.tif,33,0.0666666666666667,0.0666666666666667,1.9,15016.310477291,15017.154134375,13,15016.375253041,15016.442028541,15017.182186416,15019.07557425,1,0.84365708400037
117,28,11,categorization,0,bathroom,SHINEd_sun_apeeialkgkuxddgh.tif,42,0.0666666666666667,0.0666666666666667,0.866666666666667,15019.09331625,15019.855583791,9,15019.15972025,15019.225483375,15019.881900375,15020.741904083,0,0.762267541000256
117,29,11,categorization,0,kitchen,SHINEd_sun_ahpczsiumwwocjkv.tif,92,0.0666666666666667,0.0666666666666667,1.05,15020.746735208,15021.612399541,13,15020.808341208,15020.869546083,15021.62163125,15022.665003458,0,0.865664332999586
117,30,11,categorization,0,kitchen,SHINEd_sun_acwjdupvyjsugpay.tif,76,0.0666666666666667,0.0666666666666667,1.65,15022.674099,15023.308703208,9,15022.738545916,15022.80424575,15023.325709666,15024.969074333,1,0.634604208000383
117,31,11,categorization,0,bathroom,SHINEd_sun_aoybiabnpadelefl.tif,41,0.0666666666666667,0.0666666666666667,0.716666666666667,15024.987685541,15025.610476666,9,15025.054088958,15025.1204605,15025.626108416,15026.336139625,0,0.622791124998912
117,32,11,categorization,0,kitchen,SHINEd_sun_ahdycvpopffkzzsu.tif,90,0.0666666666666667,0.0666666666666667,1.36666666666667,15026.352162041,15027.460646625,9,15026.418885416,15026.48529725,15027.47033625,15028.830387375,1,1.10848458400142
117,33,11,categorization,0,bathroom,SHINEd_sun_apkxzenqapsujocq.tif,45,0.0666666666666667,0.0666666666666667,1.11666666666667,15028.8486645,15029.519745958,13,15028.915060833,15028.981378416,15029.537759833,15030.647812541,1,0.671081458000117
117,34,11,categorization,0,bathroom,SHINEd_sun_ahaulkltgpkeeemi.tif,26,0.0666666666666667,0.0666666666666667,0.983333333333333,15030.658291958,15031.303658375,13,15030.724842125,15030.791086166,15031.329973291,15032.306680875,1,0.645366417000332
117,35,11,categorization,0,kitchen,SHINEd_sun_acxkpeoqbwcxfvip.tif,77,0.0666666666666667,0.0666666666666667,1.15,15032.322543916,15033.084913291,13,15032.389272375,15032.45525175,15033.090552666,15034.233915375,0,0.762369375001072
117,36,11,categorization,0,bathroom,SHINEd_sun_aofnryafpsjimzsb.tif,40,0.0666666666666667,0.0666666666666667,1.08333333333333,15034.244690375,15034.965664708,13,15034.311510583,15034.377507458,15034.98355925,15036.060262625,1,0.720974332998594
117,37,11,categorization,0,bathroom,SHINEd_sun_ahijqszoswveeyji.tif,28,0.0666666666666667,0.0666666666666667,1.21666666666667,15036.076607958,15036.708118958,13,15036.143409,15036.200694166,15036.719206708,15037.92923875,1,0.631510999999591
117,38,11,categorization,0,kitchen,SHINEd_sun_abdxkyyxwfskuaqb.tif,70,0.0666666666666667,0.0666666666666667,0.783333333333333,15037.947074875,15038.553024708,13,15038.013563333,15038.079802708,15038.568815041,15039.345536625,0,0.605949832999613
117,39,11,categorization,0,kitchen,SHINEd_labelme_brsyyvweiuaazfr.tif,61,0.0666666666666667,0.0666666666666667,1,15039.362452375,15041.036371208,13,15039.429232833,15039.495427833,15041.048043916,15042.04138125,0,1.67391883299933
117,40,11,categorization,0,kitchen,SHINEd_sun_aixorpehvfykdynp.tif,95,0.0666666666666667,0.0666666666666667,1.83333333333333,15042.0462935,15042.732056541,9,15042.108057666,15042.169,15042.73751125,15044.564215833,1,0.685763040999518
117,41,11,categorization,0,kitchen,SHINEd_sun_ahljzhgcdpomplvg.tif,91,0.0666666666666667,0.0666666666666667,1.15,15044.582313666,15045.78080925,9,15044.6488305,15044.715053125,15045.805069125,15046.948449,1,1.19849558399983
117,42,11,categorization,0,kitchen,SHINEd_sun_axyyrmzcupyhlivc.tif,107,0.0666666666666667,0.0666666666666667,1.33333333333333,15046.958359625,15048.0618345,9,15047.025132958,15047.091469291,15048.081247916,15049.407947875,1,1.10347487500076
117,43,11,categorization,0,bathroom,SHINEd_sun_apjevzvycyhuqghb.tif,43,0.0666666666666667,0.0666666666666667,1.11666666666667,15049.426648875,15050.390957666,9,15049.495309083,15049.559088708,15050.415870208,15051.525916,0,0.964308791000803
117,44,11,categorization,0,bathroom,SHINEd_sun_apynckhmoftszqoq.tif,47,0.0666666666666667,0.0666666666666667,1.91666666666667,15051.536555291,15052.273957416,9,15051.601199916,15051.6695075,15052.29265675,15054.202703,0,0.73740212499979
117,45,11,categorization,0,kitchen,SHINEd_sun_abrcnpqqhmjwekyf.tif,73,0.0666666666666667,0.0666666666666667,0.783333333333333,15054.220834583,15055.030649875,9,15054.28746175,15054.353668541,15055.060304708,15055.836974541,1,0.809815291999257
117,46,11,categorization,0,bathroom,SHINEd_sun_acduarbnmmoglmiv.tif,16,0.0666666666666667,0.0666666666666667,1,15055.84258725,15056.931909583,9,15055.904291833,15055.965201916,15056.951291541,15057.944629708,0,1.08932233300038
117,47,11,categorization,0,bathroom,SHINEd_sun_abjtwfukuwddzted.tif,15,0.0666666666666667,0.0666666666666667,1.38333333333333,15057.950008791,15058.580668208,9,15058.01163325,15058.072701958,15058.591128625,15059.967828083,0,0.630659417000061
117,48,11,categorization,0,kitchen,SHINEd_sun_agubuxuukhzyzpdp.tif,88,0.0666666666666667,0.0666666666666667,1.55,15059.988007708,15060.792384958,9,15060.054695875,15060.120718958,15060.809907916,15062.353291666,1,0.804377250000471
117,49,11,categorization,0,kitchen,SHINEd_sun_aehawpgmrlhlvcow.tif,81,0.0666666666666667,0.0666666666666667,1.03333333333333,15062.37082975,15063.217566666,9,15062.43713275,15062.503885083,15063.242229583,15064.268932166,1,0.846736916000737
117,50,11,categorization,0,bathroom,SHINEd_sun_acegryoqftbzowsg.tif,17,0.0666666666666667,0.0666666666666667,1.46666666666667,15064.280839958,15065.625073958,9,15064.346176333,15064.412165125,15065.654736333,15067.114768041,0,1.34423399999832
