sub_num,trial,block,task,is_practice,category,image,texture,duration,mask_dur,jitter,stim_time,time_of_resp,trial_response,mask_time,fix_time,jit_onset,trial_end,trial_accuracy,RT
117,1,9,categorization,0,kitchen,SHINEd_sun_aeqdocilnnpuvuhx.tif,83,0.0666666666666667,0.0666666666666667,1.08333333333333,14727.074851083,14727.96582,9,14727.137253791,14727.197568416,14727.983033875,14729.059749041,1,0.890968916999554
117,2,9,categorization,0,bathroom,SHINEd_sun_apmqjbnwghzuhhzh.tif,46,0.0666666666666667,0.0666666666666667,0.8,14729.070573833,14729.706827041,13,14729.13559725,14729.203452166,14729.726816875,14730.520182041,1,0.636253208000198
117,3,9,categorization,0,bathroom,SHINEd_sun_apeeialkgkuxddgh.tif,42,0.0666666666666667,0.0666666666666667,0.833333333333333,14730.536534083,14731.237679208,13,14730.603271375,14730.669471,14731.254931625,14732.081603875,1,0.701145125000039
117,4,9,categorization,0,bathroom,SHINEd_sun_azqyogdvyhahyram.tif,60,0.0666666666666667,0.0666666666666667,1.45,14732.087557958,14732.6936625,13,14732.149270208,14732.210308166,14732.712066458,14734.155456583,1,0.60610454199923
117,5,9,categorization,0,kitchen,SHINEd_sun_aapllqyqlykszopd.tif,66,0.0666666666666667,0.0666666666666667,1.3,14734.173019708,14734.874407541,13,14734.23924,14734.30597075,14734.895869166,14736.189242583,0,0.701387832999899
117,6,9,categorization,0,bathroom,SHINEd_sun_agrwbmhcpmfuwmsg.tif,24,0.0666666666666667,0.0666666666666667,1.21666666666667,14736.207072916,14736.941144833,9,14736.273676625,14736.339602416,14736.962789583,14738.172857625,0,0.734071916998801
117,7,9,categorization,0,kitchen,SHINEd_sun_abpwyqmlzafvklqo.tif,72,0.0666666666666667,0.0666666666666667,0.733333333333333,14738.189293416,14738.847402583,9,14738.256032,14738.322101291,14738.860608208,14739.587326625,1,0.658109166999566
117,8,9,categorization,0,bathroom,SHINEd_sun_aljolscmmzydegqp.tif,33,0.0666666666666667,0.0666666666666667,1.03333333333333,14739.600419333,14740.59767925,9,14739.667044666,14739.733141458,14740.60207325,14741.628776708,0,0.99725991699961
117,9,9,categorization,0,kitchen,SHINEd_sun_auaiucuqpdausiva.tif,102,0.0666666666666667,0.0666666666666667,1.1,14741.64189525,14742.4253585,13,14741.706517666,14741.773691875,14742.446825833,14743.540212791,0,0.783463249999841
117,10,9,categorization,0,bathroom,SHINEd_sun_abapwbhyhkfixyex.tif,14,0.0666666666666667,0.0666666666666667,1.25,14743.557756875,14744.669940875,9,14743.624487916,14743.6820815,14744.68373975,14745.927102625,0,1.11218399999962
117,11,9,categorization,0,bathroom,SHINEd_sun_anhioqovhscjqqwb.tif,38,0.0666666666666667,0.0666666666666667,1.4,14745.944188166,14746.594292041,13,14746.011151291,14746.077268333,14746.617575333,14748.010941416,1,0.650103874999331
117,12,9,categorization,0,bathroom,SHINEd_sun_apynckhmoftszqoq.tif,47,0.0666666666666667,0.0666666666666667,1.43333333333333,14748.029542416,14748.698302791,13,14748.0965785,14748.162582333,14748.719586583,14750.146295625,1,0.668760374999692
117,13,9,categorization,0,bathroom,SHINEd_sun_apkruvsevgegsdwp.tif,44,0.0666666666666667,0.0666666666666667,1.26666666666667,14750.165643541,14750.86433975,13,14750.23247775,14750.298373125,14750.888641708,14752.148679916,1,0.698696208999536
117,14,9,categorization,0,bathroom,SHINEd_sun_ahcvzmoyaycdoftf.tif,27,0.0666666666666667,0.0666666666666667,0.916666666666667,14752.160564458,14753.018763,13,14752.227561291,14752.293682,14753.033171583,14753.943222333,1,0.858198542000537
117,15,9,categorization,0,kitchen,SHINEd_sun_abdxkyyxwfskuaqb.tif,70,0.0666666666666667,0.0666666666666667,1.05,14753.960536625,14754.67719075,9,14754.027651333,14754.094079666,14754.696325583,14755.739708666,1,0.716654125000787
117,16,9,categorization,0,bathroom,SHINEd_labelme_sfxiulhjbhlyiyt.tif,11,0.0666666666666667,0.0666666666666667,1.53333333333333,14755.751369,14756.448498041,13,14755.815867458,14755.882576,14756.472458291,14757.999164916,1,0.697129041000153
117,17,9,categorization,0,bathroom,SHINEd_sun_acgyywnybuveqsro.tif,18,0.0666666666666667,0.0666666666666667,1.11666666666667,14758.017220583,14759.2781595,13,14758.083789458,14758.149867791,14759.306190333,14760.4162415,1,1.26093891699929
117,18,9,categorization,0,bathroom,SHINEd_sun_aggnnqpdorgxpvce.tif,21,0.0666666666666667,0.0666666666666667,1.05,14760.426135833,14761.141137458,9,14760.491014208,14760.559149333,14761.165197666,14762.208560458,0,0.715001624999786
117,19,9,categorization,0,bathroom,SHINEd_sun_aghyqhbptboemmoq.tif,23,0.0666666666666667,0.0666666666666667,1.66666666666667,14762.224456166,14763.133289083,9,14762.291197541,14762.357256916,14763.142540458,14764.802573375,0,0.908832916999017
117,20,9,categorization,0,kitchen,SHINEd_sun_aehawpgmrlhlvcow.tif,81,0.0666666666666667,0.0666666666666667,1.98333333333333,14764.817339458,14765.502726208,13,14764.883907625,14764.950353375,14765.52296875,14767.499666291,0,0.685386749999452
117,21,9,categorization,0,kitchen,SHINEd_sun_ahywdevtimnqcsln.tif,94,0.0666666666666667,0.0666666666666667,1.06666666666667,14767.517912916,14767.674603166,9,14767.584533,14767.650468375,14767.68903225,14768.749080958,1,0.156690249999883
117,22,9,categorization,0,kitchen,SHINEd_sun_aqeaevwwwjoqhzvl.tif,101,0.0666666666666667,0.0666666666666667,1.31666666666667,14768.759296083,14769.361108208,9,14768.82423575,14768.890198166,14769.379471333,14770.689512708,1,0.601812124999924
117,23,9,categorization,0,kitchen,SHINEd_sun_akchetnepxlcxhsu.tif,98,0.0666666666666667,0.0666666666666667,1.78333333333333,14770.707557291,14772.173763083,9,14770.774406833,14770.832730875,14772.18596725,14773.962682791,1,1.46620579199953
117,24,9,categorization,0,bathroom,SHINEd_sun_afcoljnjfoxjtgja.tif,20,0.0666666666666667,0.0666666666666667,0.816666666666667,14773.9812285,14775.169794375,9,14774.048413958,14774.114134,14775.18680525,14775.996811916,0,1.18856587499977
117,25,9,categorization,0,kitchen,SHINEd_sun_aymvwlarqodbwuoc.tif,108,0.0666666666666667,0.0666666666666667,0.933333333333333,14776.003967083,14777.93345225,9,14776.065760166,14776.126659333,14777.945633083,14778.872304791,1,1.92948516700017
117,26,9,categorization,0,bathroom,SHINEd_sun_ahqjwnzgolcaoidx.tif,29,0.0666666666666667,0.0666666666666667,1.33333333333333,14778.878003125,14779.829083166,13,14778.939740333,14779.000853041,14779.836074166,14781.162786166,1,0.951080040998932
117,27,9,categorization,0,bathroom,SHINEd_sun_aofnryafpsjimzsb.tif,40,0.0666666666666667,0.0666666666666667,0.833333333333333,14781.181531333,14782.652893416,13,14781.246739875,14781.314050375,14782.673424,14783.500095166,1,1.47136208299889
117,28,9,categorization,0,kitchen,SHINEd_sun_amjjdeyrggfqgmom.tif,100,0.0666666666666667,0.0666666666666667,0.933333333333333,14783.505534166,14784.333494333,13,14783.567207791,14783.628344416,14784.347046958,14785.273717125,0,0.827960166998309
117,29,9,categorization,0,bathroom,SHINEd_sun_apjevzvycyhuqghb.tif,43,0.0666666666666667,0.0666666666666667,1.85,14785.278776125,14786.525020416,13,14785.340505208,14785.401438083,14786.5373065,14788.38068875,1,1.24624429100004
117,30,9,categorization,0,bathroom,SHINEd_sun_axxbkopsgyouuebh.tif,58,0.0666666666666667,0.0666666666666667,0.966666666666667,14788.398198333,14789.175413458,13,14788.466041333,14788.530947,14789.204229666,14790.16423325,1,0.777215125001021
117,31,9,categorization,0,bathroom,SHINEd_sun_aleqenyvunhactkl.tif,32,0.0666666666666667,0.0666666666666667,0.766666666666667,14790.170951,14790.909873208,13,14790.23273675,14790.293610833,14790.928648791,14791.688653291,1,0.738922208000076
117,32,9,categorization,0,kitchen,SHINEd_sun_aunzlwrbjumxhwdj.tif,103,0.0666666666666667,0.0666666666666667,1.15,14791.694138333,14792.525536833,13,14791.755836666,14791.816849416,14792.535358291,14793.678731375,0,0.831398500000432
117,33,9,categorization,0,kitchen,SHINEd_sun_avszsnwsbuqfgzbn.tif,105,0.0666666666666667,0.0666666666666667,0.75,14793.68909575,14794.642783708,9,14793.755609,14793.822066625,14794.661591666,14795.40497,1,0.953687957999136
117,34,9,categorization,0,kitchen,SHINEd_sun_adgqasybjyktddhj.tif,78,0.0666666666666667,0.0666666666666667,0.9,14795.422343041,14796.461324625,9,14795.488824833,14795.555058125,14796.473969458,14797.367308291,1,1.03898158399898
117,35,9,categorization,0,kitchen,SHINEd_sun_ahpczsiumwwocjkv.tif,92,0.0666666666666667,0.0666666666666667,1.88333333333333,14797.3726575,14798.141565291,9,14797.434352833,14797.495266,14798.146939,14800.023659125,1,0.768907790999947
117,36,9,categorization,0,kitchen,SHINEd_sun_acwjdupvyjsugpay.tif,76,0.0666666666666667,0.0666666666666667,1.65,14800.040330083,14800.739031166,9,14800.106921708,14800.17310675,14800.762798916,14802.406176958,1,0.698701082999833
117,37,9,categorization,0,kitchen,SHINEd_labelme_brsyyvweiuaazfr.tif,61,0.0666666666666667,0.0666666666666667,0.816666666666667,14802.42390975,14803.149818041,9,14802.4902175,14802.556580291,14803.179511791,14803.989515583,1,0.725908291000451
117,38,9,categorization,0,bathroom,SHINEd_sun_anryaplzeujmzfkd.tif,39,0.0666666666666667,0.0666666666666667,0.9,14803.99529625,14808.068934791,9,14804.057060708,14804.118043416,14808.087085416,14808.980424416,0,4.07363854100004
117,39,9,categorization,0,bathroom,SHINEd_sun_avhrdrntsqrjzccq.tif,55,0.0666666666666667,0.0666666666666667,0.733333333333333,14808.986684291,14809.724983958,9,14809.048351083,14809.109341208,14809.744445291,14810.471117083,0,0.738299667000319
117,40,9,categorization,0,bathroom,SHINEd_sun_asfwthctfqerjvxr.tif,49,0.0666666666666667,0.0666666666666667,0.85,14810.4767225,14811.237059,9,14810.538359833,14810.59930175,14811.250967916,14812.094306916,0,0.760336499999539
117,41,9,categorization,0,bathroom,SHINEd_sun_alotolagknyrgtsk.tif,35,0.0666666666666667,0.0666666666666667,1.58333333333333,14812.100034958,14812.733444583,9,14812.1616915,14812.222750875,14812.741373375,14814.318072958,0,0.633409624999331
117,42,9,categorization,0,bathroom,SHINEd_sun_ausgutylgojavyoq.tif,53,0.0666666666666667,0.0666666666666667,1.8,14814.333148791,14815.1380615,9,14814.400132291,14814.465967125,14815.155205583,14816.948579083,0,0.804912708999836
117,43,9,categorization,0,kitchen,SHINEd_sun_acxkpeoqbwcxfvip.tif,77,0.0666666666666667,0.0666666666666667,1.3,14816.969030916,14817.642591333,9,14817.036413791,14817.102913666,14817.659680625,14818.953047416,1,0.673560417000772
117,44,9,categorization,0,kitchen,SHINEd_sun_afuyedyxivkhecmu.tif,85,0.0666666666666667,0.0666666666666667,0.766666666666667,14818.972172958,14819.662255833,9,14819.03884775,14819.105734,14819.679192291,14820.439246083,1,0.690082875000371
117,45,9,categorization,0,bathroom,SHINEd_sun_aavhrsfjbserjtht.tif,13,0.0666666666666667,0.0666666666666667,1.15,14820.456374083,14821.509324458,13,14820.523704208,14820.589784166,14821.525339375,14822.668713,1,1.05295037500036
117,46,9,categorization,0,kitchen,SHINEd_sun_axyyrmzcupyhlivc.tif,107,0.0666666666666667,0.0666666666666667,1.36666666666667,14822.678644583,14823.35422975,9,14822.745898291,14822.811609875,14823.384969583,14824.745005083,1,0.675585167000463
117,47,9,categorization,0,kitchen,SHINEd_sun_aarfiyshqohlwkmo.tif,67,0.0666666666666667,0.0666666666666667,0.783333333333333,14824.762367,14825.604578625,13,14824.829395541,14824.895528333,14825.63534,14826.412036583,0,0.842211625000346
117,48,9,categorization,0,kitchen,SHINEd_sun_agorklincwxrdtga.tif,87,0.0666666666666667,0.0666666666666667,1.25,14826.425280708,14827.453518416,13,14826.492085541,14826.557878916,14827.459803208,14828.703166958,0,1.02823770800023
117,49,9,categorization,0,kitchen,SHINEd_sun_aamedkxepzlwuxes.tif,65,0.0666666666666667,0.0666666666666667,1.5,14828.722098041,14829.533167083,9,14828.788486958,14828.855324625,14829.561540458,14831.054912458,1,0.811069041999872
117,50,9,categorization,0,bathroom,SHINEd_sun_akiytfaagpdsphgz.tif,31,0.0666666666666667,0.0666666666666667,1.03333333333333,14831.067663875,14832.150264541,9,14831.134236208,14831.200502708,14832.174149166,14833.200871791,0,1.08260066600087
