sub_num,trial,block,task,is_practice,category,image,texture,duration,mask_dur,jitter,stim_time,time_of_resp,trial_response,mask_time,fix_time,jit_onset,trial_end,trial_accuracy,RT
117,1,5,categorization,0,kitchen,SHINEd_sun_afuyedyxivkhecmu.tif,85,0.0666666666666667,0.0666666666666667,1.7,14235.594965625,14236.391484166,9,14235.657585625,14235.717578041,14236.402753,14238.096125375,1,0.796518541001205
117,2,5,categorization,0,bathroom,SHINEd_sun_aofnryafpsjimzsb.tif,40,0.0666666666666667,0.0666666666666667,1.81666666666667,14238.115691125,14238.784568541,9,14238.182462458,14238.248491833,14238.805446708,14240.615497666,0,0.668877415999305
117,3,5,categorization,0,bathroom,SHINEd_sun_aleqenyvunhactkl.tif,32,0.0666666666666667,0.0666666666666667,1.23333333333333,14240.634002083,14241.291272458,9,14240.700710166,14240.766555208,14241.304212083,14242.530928416,0,0.657270375000735
117,4,5,categorization,0,kitchen,SHINEd_sun_ajcbwwvdlsvjyzje.tif,96,0.0666666666666667,0.0666666666666667,1.4,14242.549827583,14243.51427125,13,14242.616570083,14242.682110666,14243.538652,14244.932037708,0,0.964443667000523
117,5,5,categorization,0,bathroom,SHINEd_sun_agyqfjcfkdcydepw.tif,25,0.0666666666666667,0.0666666666666667,1.03333333333333,14244.951316375,14245.577851375,9,14245.018237583,14245.083927166,14245.607228708,14246.633933541,0,0.626534999999421
117,6,5,categorization,0,bathroom,SHINEd_sun_ahijqszoswveeyji.tif,28,0.0666666666666667,0.0666666666666667,1.38333333333333,14246.643442583,14247.514481958,9,14246.708278583,14246.776381625,14247.532562916,14248.90927075,0,0.871039375000692
117,7,5,categorization,0,bathroom,SHINEd_sun_acegryoqftbzowsg.tif,17,0.0666666666666667,0.0666666666666667,2,14248.926179208,14249.717350666,13,14248.992977083,14249.058806583,14249.73119675,14251.724564083,1,0.791171458000463
117,8,5,categorization,0,bathroom,SHINEd_sun_agrwbmhcpmfuwmsg.tif,24,0.0666666666666667,0.0666666666666667,1.85,14251.74337725,14252.370303,13,14251.810162625,14251.876636375,14252.399896333,14254.243285916,1,0.626925749998918
117,9,5,categorization,0,bathroom,SHINEd_sun_acduarbnmmoglmiv.tif,16,0.0666666666666667,0.0666666666666667,0.816666666666667,14254.258771333,14255.095311541,13,14254.32558375,14254.391471708,14255.114601708,14255.924607666,1,0.83654020799986
117,10,5,categorization,0,bathroom,SHINEd_sun_aqrpegblszgcoujh.tif,48,0.0666666666666667,0.0666666666666667,1.85,14255.930534041,14256.807389041,9,14255.992200416,14256.053269333,14256.821896916,14258.665275833,0,0.876855000000432
117,11,5,categorization,0,bathroom,SHINEd_sun_aapitsgbtktqubfy.tif,12,0.0666666666666667,0.0666666666666667,0.733333333333333,14258.683080083,14259.663040333,13,14258.749482291,14258.815670541,14259.689201541,14260.415874833,1,0.979960250000659
117,12,5,categorization,0,kitchen,SHINEd_sun_auaiucuqpdausiva.tif,102,0.0666666666666667,0.0666666666666667,0.716666666666667,14260.423285875,14261.335789083,9,14260.48497125,14260.54599775,14261.347770958,14262.057776083,1,0.91250320799918
117,13,5,categorization,0,bathroom,SHINEd_labelme_sfxiulhjbhlyiyt.tif,11,0.0666666666666667,0.0666666666666667,0.833333333333333,14262.063552541,14262.855616791,13,14262.125331625,14262.186104958,14262.871225666,14263.697896333,1,0.792064249999385
117,14,5,categorization,0,kitchen,SHINEd_sun_aypmqwcualkenuoe.tif,109,0.0666666666666667,0.0666666666666667,0.95,14263.703506375,14264.518940666,13,14263.765200083,14263.826215375,14264.528203041,14265.471540708,0,0.815434290998382
117,15,5,categorization,0,kitchen,SHINEd_sun_ahdycvpopffkzzsu.tif,90,0.0666666666666667,0.0666666666666667,1.96666666666667,14265.476594958,14266.183174625,13,14265.53840725,14265.59912175,14266.200919208,14268.160955166,0,0.706579667001279
117,16,5,categorization,0,bathroom,SHINEd_sun_ahaulkltgpkeeemi.tif,26,0.0666666666666667,0.0666666666666667,1.86666666666667,14268.179306083,14268.952742375,13,14268.245788958,14268.311804125,14268.967670791,14270.827707416,1,0.773436292000042
117,17,5,categorization,0,bathroom,SHINEd_sun_afcoljnjfoxjtgja.tif,20,0.0666666666666667,0.0666666666666667,1.51666666666667,14270.846423625,14271.324056791,9,14270.913233583,14270.979306833,14271.352968416,14272.86302475,0,0.477633165999578
117,18,5,categorization,0,bathroom,SHINEd_sun_atstyziqcmkahyxk.tif,51,0.0666666666666667,0.0666666666666667,1.3,14272.881402583,14273.864036708,13,14272.948324166,14273.014293541,14273.887895708,14275.18127625,1,0.982634125000914
117,19,5,categorization,0,bathroom,SHINEd_sun_agguqiubmwhqqunb.tif,22,0.0666666666666667,0.0666666666666667,1.91666666666667,14275.199102166,14275.826931833,13,14275.2637185,14275.327896708,14275.851506708,14277.761552833,1,0.627829667000697
117,20,5,categorization,0,bathroom,SHINEd_sun_aavhrsfjbserjtht.tif,13,0.0666666666666667,0.0666666666666667,1.23333333333333,14277.779303458,14278.492528083,13,14277.846372625,14277.912444416,14278.519195958,14279.745903291,1,0.713224624998475
117,21,5,categorization,0,bathroom,SHINEd_sun_anhioqovhscjqqwb.tif,38,0.0666666666666667,0.0666666666666667,0.866666666666667,14279.759675041,14280.346739416,9,14279.826571083,14279.892575541,14280.3659575,14281.225972,0,0.587064375000409
117,22,5,categorization,0,kitchen,SHINEd_sun_axyyrmzcupyhlivc.tif,107,0.0666666666666667,0.0666666666666667,0.8,14281.234657375,14282.462803916,13,14281.300027125,14281.36767775,14282.469928708,14283.2632675,0,1.22814654099966
117,23,5,categorization,0,bathroom,SHINEd_sun_axyrejkiiaqiurjk.tif,59,0.0666666666666667,0.0666666666666667,1.51666666666667,14283.267937083,14284.111139166,13,14283.329600875,14283.39063825,14284.125843416,14285.635900708,1,0.843202083000506
117,24,5,categorization,0,kitchen,SHINEd_sun_aegoxogugdkwpmpj.tif,80,0.0666666666666667,0.0666666666666667,1.18333333333333,14285.65425525,14286.306653833,13,14285.720422083,14285.787222791,14286.326791083,14287.503497291,0,0.652398583000831
117,25,5,categorization,0,kitchen,SHINEd_sun_aehawpgmrlhlvcow.tif,81,0.0666666666666667,0.0666666666666667,1.6,14287.514443041,14288.271488416,9,14287.581091041,14287.647375791,14288.28630625,14289.879683333,1,0.757045374999507
117,26,5,categorization,0,kitchen,SHINEd_sun_auticobqsbwgoppi.tif,104,0.0666666666666667,0.0666666666666667,1.56666666666667,14289.897619,14290.93056775,9,14289.964454416,14290.030415291,14290.953943833,14292.514001291,1,1.03294875000029
117,27,5,categorization,0,kitchen,SHINEd_sun_aapllqyqlykszopd.tif,66,0.0666666666666667,0.0666666666666667,1.36666666666667,14292.532034791,14293.218277958,9,14292.59874125,14292.664833458,14293.236961166,14294.597015375,1,0.686243166999702
117,28,5,categorization,0,bathroom,SHINEd_sun_ajlawzvmubibwbpy.tif,30,0.0666666666666667,0.0666666666666667,1.53333333333333,14294.613333,14295.710705041,9,14294.68000775,14294.746115041,14295.736211166,14297.262922458,0,1.0973720410002
117,29,5,categorization,0,kitchen,SHINEd_sun_abdxkyyxwfskuaqb.tif,70,0.0666666666666667,0.0666666666666667,1.4,14297.273497416,14299.0150845,9,14297.340437416,14297.406500375,14299.026048958,14300.419441083,1,1.74158708400137
117,30,5,categorization,0,kitchen,SHINEd_sun_awcpdzzznmweyyhv.tif,106,0.0666666666666667,0.0666666666666667,1.06666666666667,14300.43845675,14301.336588833,9,14300.505545291,14300.571690541,14301.362062708,14302.422105958,1,0.898132083000746
117,31,5,categorization,0,kitchen,SHINEd_sun_aexklacwqwezaorf.tif,84,0.0666666666666667,0.0666666666666667,1.63333333333333,14302.432740208,14303.254584875,9,14302.497365916,14302.563366625,14303.267867958,14304.894588208,1,0.821844666999823
117,32,5,categorization,0,kitchen,SHINEd_sun_aadbddgrdsjugojn.tif,64,0.0666666666666667,0.0666666666666667,1.8,14304.91276425,14305.736925833,9,14304.979679,14305.047127583,14305.753229583,14307.546603375,1,0.824161582999295
117,33,5,categorization,0,kitchen,SHINEd_sun_agzzivivdpnawacl.tif,89,0.0666666666666667,0.0666666666666667,1.53333333333333,14307.56189275,14308.682729125,9,14307.628934791,14307.694771208,14308.701267125,14310.227993625,1,1.12083637499927
117,34,5,categorization,0,kitchen,SHINEd_sun_aunzlwrbjumxhwdj.tif,103,0.0666666666666667,0.0666666666666667,0.766666666666667,14310.244648875,14310.963737125,9,14310.311670291,14310.377968833,14310.98469425,14311.744749625,1,0.719088249999913
117,35,5,categorization,0,kitchen,SHINEd_sun_agorklincwxrdtga.tif,87,0.0666666666666667,0.0666666666666667,1.86666666666667,14311.753264708,14312.478902041,13,14311.815208291,14311.8759925,14312.494524708,14314.354571666,0,0.725637333000122
117,36,5,categorization,0,bathroom,SHINEd_sun_aspsyogrekjtfozg.tif,50,0.0666666666666667,0.0666666666666667,1.13333333333333,14314.374423333,14315.319967625,9,14314.441193833,14314.507342166,14315.347427166,14316.47412825,0,0.945544292000704
117,37,5,categorization,0,kitchen,SHINEd_sun_ahspylgoovwmwvgk.tif,93,0.0666666666666667,0.0666666666666667,1.73333333333333,14316.484176875,14317.627039958,9,14316.549094875,14316.617101458,14317.659910416,14319.386624625,1,1.14286308300143
117,38,5,categorization,0,kitchen,SHINEd_sun_aenotlpyftoioydp.tif,82,0.0666666666666667,0.0666666666666667,0.766666666666667,14319.403676791,14320.110540041,9,14319.471362958,14319.536452375,14320.12535325,14320.885357125,1,0.706863249999515
117,39,5,categorization,0,bathroom,SHINEd_sun_apeeialkgkuxddgh.tif,42,0.0666666666666667,0.0666666666666667,1.85,14320.89092425,14321.911392625,13,14320.952642166,14321.013628,14321.915789958,14323.759155333,1,1.02046837499984
117,40,5,categorization,0,bathroom,SHINEd_sun_akiytfaagpdsphgz.tif,31,0.0666666666666667,0.0666666666666667,0.966666666666667,14323.777922625,14324.676377041,13,14323.844356166,14323.910798041,14324.700040875,14325.660046041,1,0.898454415999367
117,41,5,categorization,0,kitchen,SHINEd_sun_adgqasybjyktddhj.tif,78,0.0666666666666667,0.0666666666666667,1.06666666666667,14325.665676416,14326.590780458,9,14325.727398333,14325.788339625,14326.607396416,14327.667432083,1,0.925104042000385
117,42,5,categorization,0,kitchen,SHINEd_sun_aggjlwcdjsjcaemh.tif,86,0.0666666666666667,0.0666666666666667,1.38333333333333,14327.67870125,14328.370056208,13,14327.743322708,14327.810163208,14328.399868291,14329.776577541,0,0.691354957998556
117,43,5,categorization,0,bathroom,SHINEd_sun_ausgutylgojavyoq.tif,53,0.0666666666666667,0.0666666666666667,0.766666666666667,14329.7937115,14330.665351125,13,14329.85968125,14329.926874416,14330.682981375,14331.443025666,1,0.871639625000171
117,44,5,categorization,0,kitchen,SHINEd_sun_aixorpehvfykdynp.tif,95,0.0666666666666667,0.0666666666666667,0.866666666666667,14331.459225625,14332.582768458,13,14331.526009958,14331.592209375,14332.594618416,14333.454622625,0,1.1235428330001
117,45,5,categorization,0,kitchen,SHINEd_sun_acgtpgfybqjmzeyw.tif,75,0.0666666666666667,0.0666666666666667,1.25,14333.459519333,14335.214987125,9,14333.521255666,14333.582226541,14335.234448208,14336.477823041,1,1.75546779199976
117,46,5,categorization,0,kitchen,SHINEd_sun_abdenxonkemggwsq.tif,69,0.0666666666666667,0.0666666666666667,1.03333333333333,14336.492928291,14337.297357416,13,14336.559827416,14336.625639875,14337.315076708,14338.34175475,0,0.804429125000752
117,47,5,categorization,0,kitchen,SHINEd_sun_acxkpeoqbwcxfvip.tif,77,0.0666666666666667,0.0666666666666667,0.783333333333333,14338.347713,14339.087588708,9,14338.409434666,14338.470384833,14339.105740083,14339.882411166,1,0.739875708000909
117,48,5,categorization,0,kitchen,SHINEd_sun_acwjdupvyjsugpay.tif,76,0.0666666666666667,0.0666666666666667,0.7,14339.888893583,14340.671635291,9,14339.950581,14340.011560083,14340.679934583,14341.373273041,1,0.782741708000685
117,49,5,categorization,0,bathroom,SHINEd_sun_aljolscmmzydegqp.tif,33,0.0666666666666667,0.0666666666666667,1.75,14341.378186208,14342.031435291,13,14341.439754,14341.500876708,14342.036040625,14343.779419291,1,0.653249083001356
117,50,5,categorization,0,bathroom,SHINEd_sun_apkxzenqapsujocq.tif,45,0.0666666666666667,0.0666666666666667,1.36666666666667,14343.79640375,14344.492355041,13,14343.863272708,14343.929677791,14344.519723541,14345.879772,1,0.695951290999801
