slide,sub1,sub2,pairID,trialID,stim1,stim2,instructionsLoop.thisRepN,instructionsLoop.thisTrialN,instructionsLoop.thisN,instructionsLoop.thisIndex,practice.thisRepN,practice.thisTrialN,practice.thisN,practice.thisIndex,trials.thisRepN,trials.thisTrialN,trials.thisN,trials.thisIndex,thisRow.t,notes,preparation.started,preparation.stopped,instructions.started,startResponse.started,slide_img.started,instructions.stopped,startResponse.keys,startResponse.rt,startResponse.duration,trial.started,polygon.started,polygon_2.started,image1.started,image2.started,slider.started,question.started,slider_2.started,question_2.started,press_spce.started,trial.stopped,stim1pos,stim2pos,block,slider.response,slider.rt,slider_2.response,slider_2.rt,press_spce.keys,press_spce.rt,press_spce.duration,ITI.started,text.started,text.stopped,ITI.stopped,practice_over.started,text_2.started,space_practice_over.started,practice_over.stopped,space_practice_over.keys,space_practice_over.rt,space_practice_over.duration,breakBlocks.started,breakBlocks.stopped,startBlock.keys,participant,age,gender,session,projectID,date,expName,psychopyVersion,frameRate,expStart,
instructions/Slide1.jpg,,,,,,,0,0,0,0,,,,,,,,,0.03885830007493496,,0.0027089999057352543,0.0030800998210906982,0.009614000096917152,0.03885830007493496,0.03885830007493496,3.257854700088501,space,3.217801900114864,None,,,,,,,,,,,,,,,,,,,,,,,,,,,,,,,,,,,,200,,female,bathroom,pep_rating_own,2024-03-04_10h38.55.756,image_similarity_rating,2023.2.3,60.009241353817345,2024-03-04 10h39.04.090273 +0100,
instructions/Slide3.jpg,,,,,,,0,1,1,1,,,,,,,,,3.274150100070983,,,,3.258199399802834,3.274150100070983,3.274150100070983,5.240634299814701,space,1.9589209002442658,None,,,,,,,,,,,,,,,,,,,,,,,,,,,,,,,,,,,,200,,female,bathroom,pep_rating_own,2024-03-04_10h38.55.756,image_similarity_rating,2023.2.3,60.009241353817345,2024-03-04 10h39.04.090273 +0100,
instructions/Slide4.jpg,,,,,,,0,2,2,2,,,,,,,,,5.257016899995506,,,,5.241086899768561,5.257016899995506,5.257016899995506,7.491038899868727,space,2.2233276003971696,None,,,,,,,,,,,,,,,,,,,,,,,,,,,,,,,,,,,,200,,female,bathroom,pep_rating_own,2024-03-04_10h38.55.756,image_similarity_rating,2023.2.3,60.009241353817345,2024-03-04 10h39.04.090273 +0100,
instructions/Slide5.jpg,,,,,,,0,3,3,3,,,,,,,,,7.513140599709004,,,,7.491559300106019,7.513140599709004,7.513140599709004,9.591725199948996,space,2.072112100198865,None,,,,,,,,,,,,,,,,,,,,,,,,,,,,,,,,,,,,200,,female,bathroom,pep_rating_own,2024-03-04_10h38.55.756,image_similarity_rating,2023.2.3,60.009241353817345,2024-03-04 10h39.04.090273 +0100,
,107,128,practice,7,stimuli/own/bathroom/107_bat.jpg,stimuli/own/bathroom/128_bat.jpg,,,,,0,0,0,6,,,,,10.027924200054258,,,,,,,,,,,9.604741199873388,10.027924200054258,10.027924200054258,10.027924200054258,10.027924200054258,10.027924200054258,10.027924200054258,10.027924200054258,10.027924200054258,10.027924200054258,13.091060400009155,-4.5,4.5,0,1.0,1.6192107000388205,5.0,2.440344300121069,space,3.0525043001398444,None,13.091329999733716,13.105474600102752,13.583642200101167,13.388612300157547,,,,,,,,,,,200,,female,bathroom,pep_rating_own,2024-03-04_10h38.55.756,image_similarity_rating,2023.2.3,60.009241353817345,2024-03-04 10h39.04.090273 +0100,
,107,133,practice,9,stimuli/own/bathroom/107_bat.jpg,stimuli/own/bathroom/133_bat.jpg,,,,,0,1,1,8,,,,,13.583642200101167,,,,,,,,,,,13.388848399743438,13.583642200101167,13.583642200101167,13.583642200101167,13.583642200101167,13.583642200101167,13.583642200101167,13.583642200101167,13.583642200101167,13.583642200101167,15.242073100060225,-4.5,4.5,0,3.0,0.591968800406903,2.0,1.2532590003684163,space,1.6485594999976456,None,15.24225110001862,15.25520720006898,15.740909799933434,15.540027599781752,,,,,,,,,,,200,,female,bathroom,pep_rating_own,2024-03-04_10h38.55.756,image_similarity_rating,2023.2.3,60.009241353817345,2024-03-04 10h39.04.090273 +0100,
,108,110,practice,8,stimuli/own/bathroom/108_bat.jpg,stimuli/own/bathroom/110_bat.jpg,,,,,0,2,2,7,,,,,15.740909799933434,,,,,,,,,,,15.540871399920434,15.740909799933434,15.740909799933434,15.740909799933434,15.740909799933434,15.740909799933434,15.740909799933434,15.740909799933434,15.740909799933434,15.740909799933434,18.142461500130594,-4.5,4.5,0,6.0,0.8863372998312116,3.0,1.7554628998041153,space,2.3890137001872063,None,18.142632899805903,18.154983299784362,18.637653599958867,18.43893209984526,,,,,,,,,,,200,,female,bathroom,pep_rating_own,2024-03-04_10h38.55.756,image_similarity_rating,2023.2.3,60.009241353817345,2024-03-04 10h39.04.090273 +0100,
,128,108,practice,3,stimuli/own/bathroom/128_bat.jpg,stimuli/own/bathroom/108_bat.jpg,,,,,0,3,3,2,,,,,18.637653599958867,,,,,,,,,,,18.4391808998771,18.637653599958867,18.637653599958867,18.637653599958867,18.637653599958867,18.637653599958867,18.637653599958867,18.637653599958867,18.637653599958867,18.637653599958867,21.05820169998333,-4.5,4.5,0,2.0,0.9712865999899805,5.0,1.8173489002510905,space,2.4104852001182735,None,21.058391000144184,21.07188359973952,21.57222170010209,21.359878699760884,,,,,,,,,,,200,,female,bathroom,pep_rating_own,2024-03-04_10h38.55.756,image_similarity_rating,2023.2.3,60.009241353817345,2024-03-04 10h39.04.090273 +0100,
,110,107,practice,4,stimuli/own/bathroom/110_bat.jpg,stimuli/own/bathroom/107_bat.jpg,,,,,0,4,4,3,,,,,21.57222170010209,,,,,,,,,,,21.36088729975745,21.57222170010209,21.57222170010209,21.57222170010209,21.57222170010209,21.57222170010209,21.57222170010209,21.57222170010209,21.57222170010209,21.57222170010209,23.94194069970399,-4.5,4.5,0,5.0,0.6948161995969713,2.0,1.4537331000901759,space,2.364025100134313,None,23.942117999773473,23.955038799904287,24.432845799718052,24.23953239992261,,,,,,,,,,,200,,female,bathroom,pep_rating_own,2024-03-04_10h38.55.756,image_similarity_rating,2023.2.3,60.009241353817345,2024-03-04 10h39.04.090273 +0100,
,110,128,practice,2,stimuli/own/bathroom/110_bat.jpg,stimuli/own/bathroom/128_bat.jpg,,,,,0,5,5,1,,,,,24.432845799718052,,,,,,,,,,,24.23994609992951,24.432845799718052,24.432845799718052,24.432845799718052,24.432845799718052,24.432845799718052,24.432845799718052,24.432845799718052,24.432845799718052,24.432845799718052,26.57557879993692,-4.5,4.5,0,6.0,0.9444192997179925,5.0,1.873209800105542,space,2.1286480999551713,None,26.575817999895662,26.588764399755746,27.057606199756265,26.872276300098747,,,,,,,,,,,200,,female,bathroom,pep_rating_own,2024-03-04_10h38.55.756,image_similarity_rating,2023.2.3,60.009241353817345,2024-03-04 10h39.04.090273 +0100,
,107,108,practice,5,stimuli/own/bathroom/107_bat.jpg,stimuli/own/bathroom/108_bat.jpg,,,,,0,6,6,4,,,,,27.057606199756265,,,,,,,,,,,26.872596699744463,27.057606199756265,27.057606199756265,27.057606199756265,27.057606199756265,27.057606199756265,27.057606199756265,27.057606199756265,27.057606199756265,27.057606199756265,29.741855499800295,-4.5,4.5,0,3.0,0.785122400149703,5.0,1.878383900038898,space,2.6802429002709687,None,29.742029400076717,29.755191899836063,30.2245324999094,30.0392611999996,,,,,,,,,,,200,,female,bathroom,pep_rating_own,2024-03-04_10h38.55.756,image_similarity_rating,2023.2.3,60.009241353817345,2024-03-04 10h39.04.090273 +0100,
,110,133,practice,1,stimuli/own/bathroom/110_bat.jpg,stimuli/own/bathroom/133_bat.jpg,,,,,0,7,7,0,,,,,30.2245324999094,,,,,,,,,,,30.03946499992162,30.2245324999094,30.2245324999094,30.2245324999094,30.2245324999094,30.2245324999094,30.2245324999094,30.2245324999094,30.2245324999094,30.2245324999094,32.209839100018144,-4.5,4.5,0,5.0,0.7856351998634636,3.0,1.5802894998341799,space,1.977011399809271,None,32.21013090014458,32.22231310000643,32.700454399921,32.505263099912554,,,,,,,,,,,200,,female,bathroom,pep_rating_own,2024-03-04_10h38.55.756,image_similarity_rating,2023.2.3,60.009241353817345,2024-03-04 10h39.04.090273 +0100,
,108,133,practice,10,stimuli/own/bathroom/108_bat.jpg,stimuli/own/bathroom/133_bat.jpg,,,,,0,8,8,9,,,,,32.700454399921,,,,,,,,,,,32.50543639995158,32.700454399921,32.700454399921,32.700454399921,32.700454399921,32.700454399921,32.700454399921,32.700454399921,32.700454399921,32.700454399921,34.457471599802375,-4.5,4.5,0,3.0,0.814593399874866,5.0,1.6715246001258492,space,1.7488200003281236,None,34.45764350006357,34.471567399799824,34.942146100103855,34.75578460004181,,,,,,,,,,,200,,female,bathroom,pep_rating_own,2024-03-04_10h38.55.756,image_similarity_rating,2023.2.3,60.009241353817345,2024-03-04 10h39.04.090273 +0100,
,128,133,practice,6,stimuli/own/bathroom/128_bat.jpg,stimuli/own/bathroom/133_bat.jpg,,,,,0,9,9,5,,,,,34.942146100103855,,,,,,,,,,,34.75598239991814,34.942146100103855,34.942146100103855,34.942146100103855,34.942146100103855,34.942146100103855,34.942146100103855,34.942146100103855,34.942146100103855,34.942146100103855,36.45740249985829,-4.5,4.5,0,6.0,0.7174967997707427,6.0,1.412481399718672,space,1.5062906998209655,None,36.45757229998708,36.47171390010044,36.77184520009905,36.75535239977762,,,,,,,,,,,200,,female,bathroom,pep_rating_own,2024-03-04_10h38.55.756,image_similarity_rating,2023.2.3,60.009241353817345,2024-03-04 10h39.04.090273 +0100,
,,,,,,,,,,,,,,,,,,,,,,,,,,,,,,,,,,,,,,,,,,,,,,,,,,,,,,,36.75539669999853,36.77184520009905,36.77184520009905,39.522687499877065,space,2.7486825003288686,None,,,,200,,female,bathroom,pep_rating_own,2024-03-04_10h38.55.756,image_similarity_rating,2023.2.3,60.009241353817345,2024-03-04 10h39.04.090273 +0100,
,112,136,274,274,stimuli/own/bathroom/112_bat.jpg,stimuli/own/bathroom/136_bat.jpg,,,,,,,,,0,0,0,273,39.56783219985664,,,,,,,,,,,39.85553369997069,40.196322300005704,40.196322300005704,40.196322300005704,40.196322300005704,40.196322300005704,40.196322300005704,40.196322300005704,40.196322300005704,40.196322300005704,42.30841979989782,-4.5,4.5,1,3.0,0.7811261001043022,5.0,1.6922748000361025,space,2.09240880003199,None,39.56552550010383,39.56783219985664,40.196322300005704,39.855519799981266,,,,,,,,39.54603759991005,39.565162600018084,None,200,,female,bathroom,pep_rating_own,2024-03-04_10h38.55.756,image_similarity_rating,2023.2.3,60.009241353817345,2024-03-04 10h39.04.090273 +0100,
,103,139,100,100,stimuli/own/bathroom/103_bat.jpg,stimuli/own/bathroom/139_bat.jpg,,,,,,,,,0,1,1,99,42.32207479979843,,,,,,,,,,,42.60558079974726,42.798541700001806,42.798541700001806,42.798541700001806,42.798541700001806,42.798541700001806,42.798541700001806,42.798541700001806,42.798541700001806,42.798541700001806,44.40915310010314,-4.5,4.5,1,5.0,0.5784265999682248,3.0,1.2713103001005948,space,1.5936938999220729,None,42.313205800019205,42.32207479979843,42.798541700001806,42.605573900043964,,,,,,,,42.30915169976652,42.31315279984847,None,200,,female,bathroom,pep_rating_own,2024-03-04_10h38.55.756,image_similarity_rating,2023.2.3,60.009241353817345,2024-03-04 10h39.04.090273 +0100,
,103,112,75,75,stimuli/own/bathroom/103_bat.jpg,stimuli/own/bathroom/112_bat.jpg,,,,,,,,,0,2,2,74,44.42227389989421,,,,,,,,,,,44.70644730003551,44.9140906999819,44.9140906999819,44.9140906999819,44.9140906999819,44.9140906999819,44.9140906999819,44.9140906999819,44.9140906999819,44.9140906999819,46.69174419995397,-4.5,4.5,1,2.0,0.5954987998120487,5.0,1.3899183003231883,space,1.759297200012952,None,44.412321200128645,44.42227389989421,44.9140906999819,44.7064169999212,,,,,,,,44.40946909971535,44.41226129978895,None,200,,female,bathroom,pep_rating_own,2024-03-04_10h38.55.756,image_similarity_rating,2023.2.3,60.009241353817345,2024-03-04 10h39.04.090273 +0100,
,132,140,601,601,stimuli/own/bathroom/132_bat.jpg,stimuli/own/bathroom/140_bat.jpg,,,,,,,,,0,3,3,600,46.70510519994423,,,,,,,,,,,46.989091699942946,47.17625600006431,47.17625600006431,47.17625600006431,47.17625600006431,47.17625600006431,47.17625600006431,47.17625600006431,47.17625600006431,47.17625600006431,48.92462830012664,-4.5,4.5,1,6.0,0.7517738998867571,4.0,1.5776272001676261,space,1.7358667999505997,None,46.69452130002901,46.70510519994423,47.17625600006431,46.989085000008345,,,,,,,,46.692021399736404,46.6944635999389,None,200,,female,bathroom,pep_rating_own,2024-03-04_10h38.55.756,image_similarity_rating,2023.2.3,60.009241353817345,2024-03-04 10h39.04.090273 +0100,
,109,130,214,214,stimuli/own/bathroom/109_bat.jpg,stimuli/own/bathroom/130_bat.jpg,,,,,,,,,0,4,4,213,48.938677500002086,,,,,,,,,,,49.22223800001666,49.416652699932456,49.416652699932456,49.416652699932456,49.416652699932456,49.416652699932456,49.416652699932456,49.416652699932456,49.416652699932456,49.416652699932456,51.55768129974604,-4.5,4.5,1,3.0,1.016052400227636,5.0,1.790469199884683,space,2.136424500029534,None,48.92731470009312,48.938677500002086,49.416652699932456,49.222226600162685,,,,,,,,48.92486919974908,48.92725369986147,None,200,,female,bathroom,pep_rating_own,2024-03-04_10h38.55.756,image_similarity_rating,2023.2.3,60.009241353817345,2024-03-04 10h39.04.090273 +0100,
,105,119,145,145,stimuli/own/bathroom/105_bat.jpg,stimuli/own/bathroom/119_bat.jpg,,,,,,,,,0,5,5,144,51.57172749983147,,,,,,,,,,,51.855499299708754,52.04913940001279,52.04913940001279,52.04913940001279,52.04913940001279,52.04913940001279,52.04913940001279,52.04913940001279,52.04913940001279,52.04913940001279,54.69179129973054,-4.5,4.5,1,6.0,1.3638459998182952,3.0,2.159885900095105,space,2.6228962000459433,None,51.560232299845666,51.57172749983147,52.04913940001279,51.85548770008609,,,,,,,,51.557921699713916,51.56017299974337,None,200,,female,bathroom,pep_rating_own,2024-03-04_10h38.55.756,image_similarity_rating,2023.2.3,60.009241353817345,2024-03-04 10h39.04.090273 +0100,
,,,,,,,,,,,,,,,,,,,54.70550569985062,,,,,,,,,,,54.988939699716866,55.18213990004733,55.18213990004733,55.18213990004733,55.18213990004733,55.18213990004733,55.18213990004733,55.18213990004733,55.18213990004733,55.18213990004733,,,,,,,,,,,,54.694488499779254,54.70550569985062,55.18213990004733,54.988932699896395,,,,,,,,54.692080199718475,54.694427699781954,None,,,,,,,,,,,
