slide,sub1,sub2,pairID,trialID,stim1,stim2,instructionsLoop.thisRepN,instructionsLoop.thisTrialN,instructionsLoop.thisN,instructionsLoop.thisIndex,practice.thisRepN,practice.thisTrialN,practice.thisN,practice.thisIndex,trials.thisRepN,trials.thisTrialN,trials.thisN,trials.thisIndex,thisRow.t,notes,preparation.started,preparation.stopped,instructions.started,startResponse.started,slide_img.started,instructions.stopped,startResponse.keys,startResponse.rt,startResponse.duration,trial.started,polygon.started,polygon_2.started,image1.started,image2.started,slider.started,question.started,slider_2.started,question_2.started,press_spce.started,trial.stopped,stim1pos,stim2pos,block,slider.response,slider.rt,slider_2.response,slider_2.rt,press_spce.keys,press_spce.rt,press_spce.duration,ITI.started,text.started,text.stopped,ITI.stopped,practice_over.started,text_2.started,space_practice_over.started,practice_over.stopped,space_practice_over.keys,space_practice_over.rt,space_practice_over.duration,breakBlocks.started,breakBlocks.stopped,startBlock.keys,participant,age,gender,session,date,expName,psychopyVersion,frameRate,expStart,
instructions/Slide1.jpg,,,,,,,0,0,0,0,,,,,,,,,0.0514643001370132,,0.0036133998073637486,0.003851999994367361,0.011040799785405397,0.0514643001370132,0.0514643001370132,1.3268202999606729,space,1.274105400312692,None,,,,,,,,,,,,,,,,,,,,,,,,,,,,,,,,,,,,200,,female,bathroom,2024-03-05_11h57.46.427,image_similarity_rating,2023.2.3,60.563959357350896,2024-03-05 11h57.52.563403 +0100,
instructions/Slide3.jpg,,,,,,,0,1,1,1,,,,,,,,,1.3464282997883856,,,,1.3275615000166,1.3464282997883856,1.3464282997883856,1.6916824001818895,space,0.3451387002132833,None,,,,,,,,,,,,,,,,,,,,,,,,,,,,,,,,,,,,200,,female,bathroom,2024-03-05_11h57.46.427,image_similarity_rating,2023.2.3,60.563959357350896,2024-03-05 11h57.52.563403 +0100,
instructions/Slide4.jpg,,,,,,,0,2,2,2,,,,,,,,,1.7081540999934077,,,,1.6919935001060367,1.7081540999934077,1.7081540999934077,2.091317899990827,space,0.3830094002187252,None,,,,,,,,,,,,,,,,,,,,,,,,,,,,,,,,,,,,200,,female,bathroom,2024-03-05_11h57.46.427,image_similarity_rating,2023.2.3,60.563959357350896,2024-03-05 11h57.52.563403 +0100,
instructions/Slide5.jpg,,,,,,,0,3,3,3,,,,,,,,,2.1081972997635603,,,,2.091905400156975,2.1081972997635603,2.1081972997635603,2.642122399993241,space,0.5337705002166331,None,,,,,,,,,,,,,,,,,,,,,,,,,,,,,,,,,,,,200,,female,bathroom,2024-03-05_11h57.46.427,image_similarity_rating,2023.2.3,60.563959357350896,2024-03-05 11h57.52.563403 +0100,
,107,128,practice,7,stimuli/own/bathroom/107_bat.jpg,stimuli/own/bathroom/128_bat.jpg,,,,,0,0,0,6,,,,,2.827213999815285,,,,,,,,,,,2.6520047998055816,2.827213999815285,2.827213999815285,2.827213999815285,2.827213999815285,2.827213999815285,2.827213999815285,2.827213999815285,2.827213999815285,2.827213999815285,5.4116616998799145,-4.5,4.5,0,None,None,None,None,space,2.580098500009626,None,5.412144099827856,5.424614999908954,5.8712977999821305,5.709378799889237,,,,,,,,,,,200,,female,bathroom,2024-03-05_11h57.46.427,image_similarity_rating,2023.2.3,60.563959357350896,2024-03-05 11h57.52.563403 +0100,
,107,133,practice,9,stimuli/own/bathroom/107_bat.jpg,stimuli/own/bathroom/133_bat.jpg,,,,,0,1,1,8,,,,,5.8712977999821305,,,,,,,,,,,5.710055800154805,5.8712977999821305,5.8712977999821305,5.8712977999821305,5.8712977999821305,5.8712977999821305,5.8712977999821305,5.8712977999821305,5.8712977999821305,5.8712977999821305,7.093823499977589,-4.5,4.5,0,None,None,None,None,space,1.219582799822092,None,7.094017100054771,7.107327600009739,7.55648020002991,7.392388599924743,,,,,,,,,,,200,,female,bathroom,2024-03-05_11h57.46.427,image_similarity_rating,2023.2.3,60.563959357350896,2024-03-05 11h57.52.563403 +0100,
,108,110,practice,8,stimuli/own/bathroom/108_bat.jpg,stimuli/own/bathroom/110_bat.jpg,,,,,0,2,2,7,,,,,7.55648020002991,,,,,,,,,,,7.392972100060433,7.55648020002991,7.55648020002991,7.55648020002991,7.55648020002991,7.55648020002991,7.55648020002991,7.55648020002991,7.55648020002991,7.55648020002991,8.876870399806648,-4.5,4.5,0,None,None,None,None,space,1.317477300297469,None,8.877075700089335,8.890627100132406,9.35828599985689,9.176819200161844,,,,,,,,,,,200,,female,bathroom,2024-03-05_11h57.46.427,image_similarity_rating,2023.2.3,60.563959357350896,2024-03-05 11h57.52.563403 +0100,
,128,108,practice,3,stimuli/own/bathroom/128_bat.jpg,stimuli/own/bathroom/108_bat.jpg,,,,,0,3,3,2,,,,,9.35828599985689,,,,,,,,,,,9.177500399760902,9.35828599985689,9.35828599985689,9.35828599985689,9.35828599985689,9.35828599985689,9.35828599985689,9.35828599985689,9.35828599985689,9.35828599985689,10.29360290011391,-4.5,4.5,0,None,None,None,None,space,0.9324580999091268,None,10.293801499996334,10.307743799872696,,10.59402919979766,,,,,,,,,,,200,,female,bathroom,2024-03-05_11h57.46.427,image_similarity_rating,2023.2.3,60.563959357350896,2024-03-05 11h57.52.563403 +0100,
,110,107,practice,4,stimuli/own/bathroom/110_bat.jpg,stimuli/own/bathroom/107_bat.jpg,,,,,0,4,4,3,,,,,10.764035400003195,,,,,,,,,,,10.594738500192761,10.764035400003195,10.764035400003195,10.764035400003195,10.764035400003195,10.764035400003195,10.764035400003195,10.764035400003195,10.764035400003195,10.764035400003195,11.493368899915367,-4.5,4.5,0,None,None,None,None,space,0.7264117999002337,None,11.493587600067258,11.50701789977029,11.959015000145882,11.79272639984265,,,,,,,,,,,200,,female,bathroom,2024-03-05_11h57.46.427,image_similarity_rating,2023.2.3,60.563959357350896,2024-03-05 11h57.52.563403 +0100,
,110,128,practice,2,stimuli/own/bathroom/110_bat.jpg,stimuli/own/bathroom/128_bat.jpg,,,,,0,5,5,1,,,,,11.959015000145882,,,,,,,,,,,11.793359099887311,11.959015000145882,11.959015000145882,11.959015000145882,11.959015000145882,11.959015000145882,11.959015000145882,11.959015000145882,11.959015000145882,11.959015000145882,12.710203499998897,-4.5,4.5,0,None,None,None,None,space,0.7482325001619756,None,12.710399500094354,12.723974999971688,13.18464899994433,13.009864199906588,,,,,,,,,,,200,,female,bathroom,2024-03-05_11h57.46.427,image_similarity_rating,2023.2.3,60.563959357350896,2024-03-05 11h57.52.563403 +0100,
,107,108,practice,5,stimuli/own/bathroom/107_bat.jpg,stimuli/own/bathroom/108_bat.jpg,,,,,0,6,6,4,,,,,13.18464899994433,,,,,,,,,,,13.010552099905908,13.18464899994433,13.18464899994433,13.18464899994433,13.18464899994433,13.18464899994433,13.18464899994433,13.18464899994433,13.18464899994433,13.18464899994433,15.011249899864197,-4.5,4.5,0,None,None,None,None,space,1.8237740998156369,None,15.011460300069302,15.024158999789506,15.45080849993974,15.307799300178885,,,,,,,,,,,200,,female,bathroom,2024-03-05_11h57.46.427,image_similarity_rating,2023.2.3,60.563959357350896,2024-03-05 11h57.52.563403 +0100,
,110,133,practice,1,stimuli/own/bathroom/110_bat.jpg,stimuli/own/bathroom/133_bat.jpg,,,,,0,7,7,0,,,,,15.45080849993974,,,,,,,,,,,15.308107200078666,15.45080849993974,15.45080849993974,15.45080849993974,15.45080849993974,15.45080849993974,15.45080849993974,15.45080849993974,15.45080849993974,15.45080849993974,16.57800399977714,-4.5,4.5,0,None,None,None,None,space,1.124159200116992,None,16.57820799993351,16.590606099925935,17.060451900120825,16.876320499926805,,,,,,,,,,,200,,female,bathroom,2024-03-05_11h57.46.427,image_similarity_rating,2023.2.3,60.563959357350896,2024-03-05 11h57.52.563403 +0100,
,108,133,practice,10,stimuli/own/bathroom/108_bat.jpg,stimuli/own/bathroom/133_bat.jpg,,,,,0,8,8,9,,,,,17.060451900120825,,,,,,,,,,,16.877013999968767,17.060451900120825,17.060451900120825,17.060451900120825,17.060451900120825,17.060451900120825,17.060451900120825,17.060451900120825,17.060451900120825,17.060451900120825,18.734564499929547,-4.5,4.5,0,None,None,None,None,space,1.6686070999130607,None,18.734772100113332,18.740622099954635,19.18823410011828,19.026920899748802,,,,,,,,,,,200,,female,bathroom,2024-03-05_11h57.46.427,image_similarity_rating,2023.2.3,60.563959357350896,2024-03-05 11h57.52.563403 +0100,
,128,133,practice,6,stimuli/own/bathroom/128_bat.jpg,stimuli/own/bathroom/133_bat.jpg,,,,,0,9,9,5,,,,,19.18823410011828,,,,,,,,,,,19.027673500124365,19.18823410011828,19.18823410011828,19.18823410011828,19.18823410011828,19.18823410011828,19.18823410011828,19.18823410011828,19.18823410011828,19.18823410011828,20.077078999951482,-4.5,4.5,0,None,None,None,None,space,0.8859347999095917,None,20.077275400049984,20.090598599985242,20.39194899983704,20.376970899756998,,,,,,,,,,,200,,female,bathroom,2024-03-05_11h57.46.427,image_similarity_rating,2023.2.3,60.563959357350896,2024-03-05 11h57.52.563403 +0100,
,,,,,,,,,,,,,,,,,,,,,,,,,,,,,,,,,,,,,,,,,,,,,,,,,,,,,,,20.37710339995101,20.39194899983704,20.39194899983704,21.026141799986362,space,0.6339981001801789,None,,,,200,,female,bathroom,2024-03-05_11h57.46.427,image_similarity_rating,2023.2.3,60.563959357350896,2024-03-05 11h57.52.563403 +0100,
,112,136,274,274,stimuli/own/bathroom/112_bat.jpg,stimuli/own/bathroom/136_bat.jpg,,,,,,,,,0,0,0,273,21.096148599870503,,,,,,,,,,,21.39139120001346,21.5522245997563,21.5522245997563,21.5522245997563,21.5522245997563,21.5522245997563,21.5522245997563,21.5522245997563,21.5522245997563,21.5522245997563,24.17812390020117,-4.5,4.5,1,None,None,None,None,space,2.6225446998141706,None,21.093213399872184,21.096148599870503,21.5522245997563,21.391377300024033,,,,,,,,21.059791299980134,21.09294919995591,None,200,,female,bathroom,2024-03-05_11h57.46.427,image_similarity_rating,2023.2.3,60.563959357350896,2024-03-05 11h57.52.563403 +0100,
,103,139,100,100,stimuli/own/bathroom/103_bat.jpg,stimuli/own/bathroom/139_bat.jpg,,,,,,,,,0,1,1,99,24.19066180009395,,,,,,,,,,,24.476501299999654,24.647358200047165,24.647358200047165,24.647358200047165,24.647358200047165,24.647358200047165,24.647358200047165,24.647358200047165,24.647358200047165,24.647358200047165,27.21052259998396,-4.5,4.5,1,None,None,None,None,space,2.5601603002287447,None,24.184365999884903,24.19066180009395,24.647358200047165,24.47647689981386,,,,,,,,24.179420299828053,24.184289699885994,None,200,,female,bathroom,2024-03-05_11h57.46.427,image_similarity_rating,2023.2.3,60.563959357350896,2024-03-05 11h57.52.563403 +0100,
,103,112,75,75,stimuli/own/bathroom/103_bat.jpg,stimuli/own/bathroom/112_bat.jpg,,,,,,,,,0,2,2,74,27.22397769987583,,,,,,,,,,,27.508241300005466,27.650292600039393,27.650292600039393,27.650292600039393,27.650292600039393,27.650292600039393,27.650292600039393,27.650292600039393,27.650292600039393,27.650292600039393,28.693623300176114,-4.5,4.5,1,None,None,None,None,space,1.0403136000968516,None,27.213841899763793,27.22397769987583,27.650292600039393,27.508227999787778,,,,,,,,27.21082689985633,27.213776600081474,None,200,,female,bathroom,2024-03-05_11h57.46.427,image_similarity_rating,2023.2.3,60.563959357350896,2024-03-05 11h57.52.563403 +0100,
,132,140,601,601,stimuli/own/bathroom/132_bat.jpg,stimuli/own/bathroom/140_bat.jpg,,,,,,,,,0,3,3,600,28.70702899992466,,,,,,,,,,,28.99240789981559,29.15285009983927,29.15285009983927,29.15285009983927,29.15285009983927,29.15285009983927,29.15285009983927,29.15285009983927,29.15285009983927,29.15285009983927,30.710123899858445,-4.5,4.5,1,None,None,None,None,space,1.554328499827534,None,28.697044000029564,28.70702899992466,29.15285009983927,28.992383299861103,,,,,,,,28.693926500156522,28.696977599989623,None,200,,female,bathroom,2024-03-05_11h57.46.427,image_similarity_rating,2023.2.3,60.563959357350896,2024-03-05 11h57.52.563403 +0100,
,109,130,214,214,stimuli/own/bathroom/109_bat.jpg,stimuli/own/bathroom/130_bat.jpg,,,,,,,,,0,4,4,213,30.723598999902606,,,,,,,,,,,31.010318899992853,31.183832299895585,31.183832299895585,31.183832299895585,31.183832299895585,31.183832299895585,31.183832299895585,31.183832299895585,31.183832299895585,31.183832299895585,32.37689140019938,-4.5,4.5,1,None,None,None,None,space,1.1901488001458347,None,30.713592700194567,30.723598999902606,31.183832299895585,31.010292999912053,,,,,,,,30.71042610006407,30.713516000192612,None,200,,female,bathroom,2024-03-05_11h57.46.427,image_similarity_rating,2023.2.3,60.563959357350896,2024-03-05 11h57.52.563403 +0100,
,105,119,145,145,stimuli/own/bathroom/105_bat.jpg,stimuli/own/bathroom/119_bat.jpg,,,,,,,,,0,5,5,144,32.39058580016717,,,,,,,,,,,32.67485539987683,32.82221039989963,32.82221039989963,32.82221039989963,32.82221039989963,32.82221039989963,32.82221039989963,32.82221039989963,32.82221039989963,32.82221039989963,33.626815100200474,-4.5,4.5,1,None,None,None,None,space,0.8015732001513243,None,32.3804717999883,32.39058580016717,32.82221039989963,32.674842100124806,,,,,,,,32.3771887999028,32.38040310004726,None,200,,female,bathroom,2024-03-05_11h57.46.427,image_similarity_rating,2023.2.3,60.563959357350896,2024-03-05 11h57.52.563403 +0100,
,111,114,227,227,stimuli/own/bathroom/111_bat.jpg,stimuli/own/bathroom/114_bat.jpg,,,,,,,,,0,6,6,226,33.64041819982231,,,,,,,,,,,33.927046299912035,34.09490780020133,34.09490780020133,34.09490780020133,34.09490780020133,34.09490780020133,34.09490780020133,34.09490780020133,34.09490780020133,34.09490780020133,34.79468629974872,-4.5,4.5,1,None,None,None,None,space,0.6968359998427331,None,33.630257999990135,33.64041819982231,34.09490780020133,33.927018399816006,,,,,,,,33.62711140001193,33.630190500058234,None,200,,female,bathroom,2024-03-05_11h57.46.427,image_similarity_rating,2023.2.3,60.563959357350896,2024-03-05 11h57.52.563403 +0100,
,104,138,131,131,stimuli/own/bathroom/104_bat.jpg,stimuli/own/bathroom/138_bat.jpg,,,,,,,,,0,7,7,130,34.807365300133824,,,,,,,,,,,35.092223700135946,35.25128720002249,35.25128720002249,35.25128720002249,35.25128720002249,35.25128720002249,35.25128720002249,35.25128720002249,35.25128720002249,35.25128720002249,35.86026730015874,-4.5,4.5,1,None,None,None,None,space,0.6060339002870023,None,34.798136699944735,34.807365300133824,35.25128720002249,35.092200099956244,,,,,,,,34.7949755997397,34.79806650010869,None,200,,female,bathroom,2024-03-05_11h57.46.427,image_similarity_rating,2023.2.3,60.563959357350896,2024-03-05 11h57.52.563403 +0100,
,101,139,33,33,stimuli/own/bathroom/101_bat.jpg,stimuli/own/bathroom/139_bat.jpg,,,,,,,,,0,8,8,32,35.87413439992815,,,,,,,,,,,36.1604383001104,36.342735200189054,36.342735200189054,36.342735200189054,36.342735200189054,36.342735200189054,36.342735200189054,36.342735200189054,36.342735200189054,36.342735200189054,36.79418209986761,-4.5,4.5,1,None,None,None,None,space,0.44852499989792705,None,35.8637310997583,35.87413439992815,36.342735200189054,36.16040399996564,,,,,,,,35.86056090006605,35.863657999783754,None,200,,female,bathroom,2024-03-05_11h57.46.427,image_similarity_rating,2023.2.3,60.563959357350896,2024-03-05 11h57.52.563403 +0100,
,,,,,,,,,,,,,,,,,,,36.807756499852985,,,,,,,,,,,37.092641700059175,37.252379999961704,37.252379999961704,37.252379999961704,37.252379999961704,37.252379999961704,37.252379999961704,37.252379999961704,37.252379999961704,37.252379999961704,,,,,,,,,,,,36.797508200164884,36.807756499852985,37.252379999961704,37.09262209990993,,,,,,,,36.794473099987954,36.797441999893636,None,,,,,,,,,,
