sub_num,trial,block,task,is_practice,category,image,texture,duration,mask_dur,jitter,stim_time,time_of_resp,trial_response,mask_time,fix_time,jit_onset,trial_end,trial_accuracy,RT
116,1,0,aesthetic,1,bathroom,bathroom_practice1.tif,221,1.5,0,1.6,1503.743081125,1508.803099458,2,NaN,1508.808674166,1508.826902958,1510.4202925,NaN,NaN
116,2,0,aesthetic,1,bathroom,bathroom_practice2.tif,222,1.5,0,1.26666666666667,1510.436834041,1514.570730666,5,NaN,1514.576181333,1514.594569791,1515.854624791,NaN,NaN
116,3,0,aesthetic,1,bathroom,bathroom_practice3.tif,223,1.5,0,1.15,1515.873494375,1519.883000541,4,NaN,1519.888708708,1519.907035583,1521.050407833,NaN,NaN
116,4,0,aesthetic,1,bathroom,bathroom_practice4.tif,224,1.5,0,1.75,1521.059224916,1526.066357083,2,NaN,1526.072186708,1526.0907475,1527.834119333,NaN,NaN
116,5,0,aesthetic,1,bathroom,bathroom_practice5.tif,225,1.5,0,0.85,1527.851818333,1531.287914583,3,NaN,1531.317081041,1531.3382085,1532.181546916,NaN,NaN
116,1,1,aesthetic,0,bathroom,sun_acgyywnybuveqsro.tif,128,1.5,0,0.933333333333333,1536.834899875,1540.842970958,3,NaN,1540.848505083,1540.8669505,1541.793622166,NaN,NaN
116,2,1,aesthetic,0,bathroom,sun_ahcvzmoyaycdoftf.tif,137,1.5,0,1.18333333333333,1541.798088083,1546.70677125,3,NaN,1546.713910708,1546.73219475,1547.908905125,NaN,NaN
116,3,1,aesthetic,0,bathroom,sun_ahqjwnzgolcaoidx.tif,139,1.5,0,1.56666666666667,1547.918354958,1552.074143125,4,NaN,1552.079893333,1552.098221458,1553.658261541,NaN,NaN
116,4,1,aesthetic,0,bathroom,sun_ambriybtogmepttm.tif,146,1.5,0,1.38333333333333,1553.673414041,1557.794719916,1,NaN,1557.800752791,1557.819073041,1559.195793583,NaN,NaN
116,5,1,aesthetic,0,bathroom,sun_apkruvsevgegsdwp.tif,154,1.5,0,1.23333333333333,1559.212398666,1562.674084875,1,NaN,1562.679684458,1562.6979945,1563.924719125,NaN,NaN
116,6,1,aesthetic,0,bathroom,sun_apkxzenqapsujocq.tif,155,1.5,0,1.83333333333333,1563.9440455,1569.250767375,4,NaN,1569.256740291,1569.274913,1571.101627083,NaN,NaN
116,7,1,aesthetic,0,bathroom,sun_agyqfjcfkdcydepw.tif,135,1.5,0,1.1,1571.118193041,1574.3400485,4,NaN,1574.368859666,1574.391310458,1575.484691416,NaN,NaN
116,8,1,aesthetic,0,bathroom,sun_anhioqovhscjqqwb.tif,148,1.5,0,1.71666666666667,1575.492817625,1578.714174375,1,NaN,1578.719821583,1578.738101541,1580.448136,NaN,NaN
116,9,1,aesthetic,0,bathroom,sun_alotolagknyrgtsk.tif,145,1.5,0,1.01666666666667,1580.467407541,1583.857692875,5,NaN,1583.887443833,1583.908971416,1584.919015625,NaN,NaN
116,10,1,aesthetic,0,bathroom,sun_auzqhkafidnkrwmo.tif,164,1.5,0,1.36666666666667,1584.92900825,1589.074536708,5,NaN,1589.080021416,1589.098409208,1590.458464541,NaN,NaN
116,11,1,aesthetic,0,bathroom,sun_agguqiubmwhqqunb.tif,132,1.5,0,0.75,1590.477530958,1595.258651125,4,NaN,1595.264155625,1595.282499083,1596.025836625,NaN,NaN
116,12,1,aesthetic,0,bathroom,sun_acduarbnmmoglmiv.tif,126,1.5,0,1.31666666666667,1596.030327291,1599.706403541,6,NaN,1599.712125791,1599.730446083,1601.040474333,NaN,NaN
116,13,1,aesthetic,0,bathroom,sun_aclfzgynxzxlbepz.tif,129,1.5,0,1.33333333333333,1601.059822166,1605.562306791,4,NaN,1605.567850541,1605.58617925,1606.91290275,NaN,NaN
116,14,1,aesthetic,0,bathroom,sun_axxbkopsgyouuebh.tif,168,1.5,0,1.41666666666667,1606.928692208,1611.001943083,3,NaN,1611.007840458,1611.026070541,1612.436123791,NaN,NaN
116,15,1,aesthetic,0,bathroom,sun_avhrdrntsqrjzccq.tif,165,1.5,0,1.93333333333333,1612.454168708,1616.161756875,3,NaN,1616.167615291,1616.185956125,1618.1126655,NaN,NaN
116,16,1,aesthetic,0,bathroom,sun_ahijqszoswveeyji.tif,138,1.5,0,1.68333333333333,1618.127776958,1622.177816666,4,NaN,1622.183779708,1622.202202791,1623.878916583,NaN,NaN
116,17,1,aesthetic,0,bathroom,sun_atstyziqcmkahyxk.tif,161,1.5,0,0.783333333333333,1623.895756083,1627.489871458,3,NaN,1627.496508,1627.514832375,1628.291504625,NaN,NaN
116,18,1,aesthetic,0,bathroom,sun_asfwthctfqerjvxr.tif,159,1.5,0,1.93333333333333,1628.296418041,1632.705917,6,NaN,1632.711803083,1632.730119666,1634.65684275,NaN,NaN
116,19,1,aesthetic,0,bathroom,sun_aofnryafpsjimzsb.tif,150,1.5,0,1.18333333333333,1634.67401475,1638.7055695,5,NaN,1638.711543833,1638.729885166,1639.906589875,NaN,NaN
116,20,1,aesthetic,0,bathroom,sun_afcoljnjfoxjtgja.tif,130,1.5,0,1.61666666666667,1639.917822541,1647.906039708,5,NaN,1647.911631541,1647.930261375,1649.540302916,NaN,NaN
116,21,1,aesthetic,0,bathroom,sun_akiytfaagpdsphgz.tif,141,1.5,0,1.16666666666667,1649.559864875,1655.121836708,5,NaN,1655.127928708,1655.146308333,1656.306350708,NaN,NaN
116,22,1,aesthetic,0,bathroom,sun_awnqiikzaispgmwo.tif,166,1.5,0,1.85,1656.31514425,1659.601633166,4,NaN,1659.607483416,1659.625623458,1661.469009625,NaN,NaN
116,23,1,aesthetic,0,bathroom,sun_apjevzvycyhuqghb.tif,153,1.5,0,1.68333333333333,1661.484876208,1665.225939541,6,NaN,1665.23156275,1665.249870583,1666.926588083,NaN,NaN
116,24,1,aesthetic,0,bathroom,sun_apynckhmoftszqoq.tif,157,1.5,0,1.98333333333333,1666.9455955,1670.745979125,2,NaN,1670.752724916,1670.771038541,1672.747747875,NaN,NaN
116,25,1,aesthetic,0,bathroom,sun_aoybiabnpadelefl.tif,151,1.5,0,1.28333333333333,1672.765841666,1676.673830333,2,NaN,1676.679622125,1676.698177291,1677.974884791,NaN,NaN
116,1,2,aesthetic,0,bathroom,sun_apmqjbnwghzuhhzh.tif,156,1.5,0,0.9,1684.213981333,1688.690220916,2,NaN,1688.70009825,1688.718549666,1689.611886916,NaN,NaN
116,2,2,aesthetic,0,bathroom,sun_aapitsgbtktqubfy.tif,122,1.5,0,1.95,1689.61636825,1692.986200166,3,NaN,1692.991985208,1693.010280166,1694.953653791,NaN,NaN
116,3,2,aesthetic,0,bathroom,sun_axyrejkiiaqiurjk.tif,169,1.5,0,1,1694.972479333,1698.705714708,1,NaN,1698.711576333,1698.729961708,1699.72329925,NaN,NaN
116,4,2,aesthetic,0,bathroom,sun_ahaulkltgpkeeemi.tif,136,1.5,0,0.733333333333333,1699.728083208,1703.418097541,3,NaN,1703.42408425,1703.442355625,1704.169026958,NaN,NaN
116,5,2,aesthetic,0,bathroom,sun_amzlamotzwfkwjco.tif,147,1.5,0,1.2,1704.173672708,1707.529714333,1,NaN,1707.535337458,1707.553716541,1708.747097541,NaN,NaN
116,6,2,aesthetic,0,bathroom,sun_aunuadmjocsddsrl.tif,162,1.5,0,1.21666666666667,1708.76019,1712.617757166,1,NaN,1712.6232915,1712.641610708,1713.85165025,NaN,NaN
116,7,2,aesthetic,0,bathroom,sun_azqyogdvyhahyram.tif,170,1.5,0,0.933333333333333,1713.868510208,1718.633483333,2,NaN,1718.6392755,1718.657499375,1719.584171208,NaN,NaN
116,8,2,aesthetic,0,bathroom,sun_aqrpegblszgcoujh.tif,158,1.5,0,0.916666666666667,1719.588767916,1725.977527166,5,NaN,1725.983150333,1726.001558625,1726.911562791,NaN,NaN
116,9,2,aesthetic,0,bathroom,sun_aspsyogrekjtfozg.tif,160,1.5,0,1.1,1726.916224833,1733.858383291,6,NaN,1733.864092291,1733.8825245,1734.975895041,NaN,NaN
116,10,2,aesthetic,0,bathroom,sun_axldvoqbuvuggfmq.tif,167,1.5,0,1.16666666666667,1734.983891791,1738.249639875,5,NaN,1738.255301166,1738.273647041,1739.433690375,NaN,NaN
116,11,2,aesthetic,0,bathroom,sun_abjtwfukuwddzted.tif,125,1.5,0,0.783333333333333,1739.441841625,1742.746047875,4,NaN,1742.751646833,1742.769853125,1743.546524875,NaN,NaN
116,12,2,aesthetic,0,bathroom,sun_abapwbhyhkfixyex.tif,124,1.5,0,1.95,1743.551055458,1747.337505333,4,NaN,1747.343423583,1747.361733375,1749.305097458,NaN,NaN
116,13,2,aesthetic,0,bathroom,sun_anryaplzeujmzfkd.tif,149,1.5,0,1.05,1749.3228215,1753.057781125,5,NaN,1753.063160916,1753.081462541,1754.124837458,NaN,NaN
116,14,2,aesthetic,0,bathroom,sun_ausgutylgojavyoq.tif,163,1.5,0,1.03333333333333,1754.132551625,1760.346030958,6,NaN,1760.352731083,1760.371251291,1761.397964166,NaN,NaN
116,15,2,aesthetic,0,bathroom,sun_aggnnqpdorgxpvce.tif,131,1.5,0,1.45,1761.405821375,1764.962252416,6,NaN,1764.967820041,1764.986077833,1766.42946725,NaN,NaN
116,16,2,aesthetic,0,bathroom,sun_aljolscmmzydegqp.tif,143,1.5,0,0.966666666666667,1766.446761166,1770.786231625,7,NaN,1770.791855833,1770.810182208,1771.770187375,NaN,NaN
116,17,2,aesthetic,0,bathroom,sun_aghyqhbptboemmoq.tif,133,1.5,0,0.966666666666667,1771.775542583,1775.241853916,4,NaN,1775.247288833,1775.265605291,1776.225608666,NaN,NaN
116,18,2,aesthetic,0,bathroom,sun_alkosphxlxwjwgjd.tif,144,1.5,0,1.2,1776.230094916,1780.881640166,6,NaN,1780.887545958,1780.90599375,1782.099359541,NaN,NaN
116,19,2,aesthetic,0,bathroom,sun_apeeialkgkuxddgh.tif,152,1.5,0,0.933333333333333,1782.111137458,1786.681533416,7,NaN,1786.687649125,1786.705946208,1787.632617375,NaN,NaN
116,20,2,aesthetic,0,bathroom,sun_aleqenyvunhactkl.tif,142,1.5,0,1.31666666666667,1787.637088958,1792.921818333,6,NaN,1792.928051041,1792.946371208,1794.256415416,NaN,NaN
116,21,2,aesthetic,0,bathroom,sun_ajlawzvmubibwbpy.tif,140,1.5,0,1.18333333333333,1794.273043125,1799.913609958,4,NaN,1799.919254375,1799.937566208,1801.114286708,NaN,NaN
116,22,2,aesthetic,0,bathroom,labelme_sfxiulhjbhlyiyt.tif,121,1.5,0,1.71666666666667,1801.124100375,1804.794056083,4,NaN,1804.799624333,1804.817919416,1806.527962083,NaN,NaN
116,23,2,aesthetic,0,bathroom,sun_aavhrsfjbserjtht.tif,123,1.5,0,1.53333333333333,1806.5453535,1811.617030708,5,NaN,1811.622945,1811.641001541,1813.167700083,NaN,NaN
116,24,2,aesthetic,0,bathroom,sun_acegryoqftbzowsg.tif,127,1.5,0,0.933333333333333,1813.1851365,1816.529613833,2,NaN,1816.535126291,1816.553448291,1817.480118791,NaN,NaN
116,25,2,aesthetic,0,bathroom,sun_agrwbmhcpmfuwmsg.tif,134,1.5,0,0.916666666666667,1817.484604166,1820.356675375,3,NaN,1820.385129458,1820.4082525,1821.318255958,NaN,NaN
