sub_num,trial,block,task,is_practice,category,image,texture,duration,mask_dur,jitter,stim_time,time_of_resp,trial_response,mask_time,fix_time,jit_onset,trial_end,trial_accuracy,RT
124,1,11,categorization,0,bathroom,SHINEd_sun_aoybiabnpadelefl.tif,41,0.0666666666666667,0.0666666666666667,0.8,2585.076382833,2589.044609,13,2585.138933083,2585.199039541,2589.061319791,2589.85465825,1,3.96822616700001
124,2,11,categorization,0,kitchen,SHINEd_sun_adgqasybjyktddhj.tif,78,0.0666666666666667,0.0666666666666667,1.13333333333333,2589.859853458,2590.524878541,9,2589.921603208,2589.982549416,2590.534306625,2591.661015916,1,0.665025082999819
124,3,11,categorization,0,bathroom,SHINEd_sun_aqrpegblszgcoujh.tif,48,0.0666666666666667,0.0666666666666667,1.05,2591.670655791,2592.314029791,13,2591.735745,2591.803061333,2592.343345625,2593.386735916,1,0.643373999999767
124,4,11,categorization,0,kitchen,SHINEd_sun_agubuxuukhzyzpdp.tif,88,0.0666666666666667,0.0666666666666667,1.05,2593.403509958,2594.356835083,9,2593.470756,2593.535948291,2594.3719625,2595.415335958,1,0.953325124999992
124,5,11,categorization,0,kitchen,SHINEd_sun_aixorpehvfykdynp.tif,95,0.0666666666666667,0.0666666666666667,1.63333333333333,2595.426294791,2596.230686708,9,2595.491563041,2595.557139833,2596.2466125,2597.873332375,1,0.804391916999975
124,6,11,categorization,0,bathroom,SHINEd_sun_apkruvsevgegsdwp.tif,44,0.0666666666666667,0.0666666666666667,0.85,2597.886778,2598.54084775,13,2597.953425125,2598.019274916,2598.559183375,2599.40257775,1,0.654069749999962
124,7,11,categorization,0,bathroom,SHINEd_sun_ambriybtogmepttm.tif,36,0.0666666666666667,0.0666666666666667,1.5,2599.419157583,2600.524856916,13,2599.485951,2599.5516555,2600.537509916,2602.030885291,1,1.10569933299985
124,8,11,categorization,0,bathroom,SHINEd_sun_apjevzvycyhuqghb.tif,43,0.0666666666666667,0.0666666666666667,1.46666666666667,2602.049829833,2603.916734833,9,2602.116938708,2602.182494625,2603.935618916,2605.395677875,0,1.86690500000032
124,9,11,categorization,0,kitchen,SHINEd_sun_aarfiyshqohlwkmo.tif,67,0.0666666666666667,0.0666666666666667,1.06666666666667,2605.415612791,2606.304761041,9,2605.482832,2605.548236541,2606.321848666,2607.3818965,1,0.889148249999835
124,10,11,categorization,0,bathroom,SHINEd_sun_agrwbmhcpmfuwmsg.tif,24,0.0666666666666667,0.0666666666666667,0.8,2607.394999875,2608.118631625,13,2607.4617745,2607.526024833,2608.1319225,2608.92530475,1,0.723631750000095
124,11,11,categorization,0,kitchen,SHINEd_sun_ahpczsiumwwocjkv.tif,92,0.0666666666666667,0.0666666666666667,1.41666666666667,2608.935906541,2609.75763475,13,2609.002254708,2609.068738958,2609.771287291,2611.181348125,0,0.821728208999957
124,12,11,categorization,0,kitchen,SHINEd_labelme_brsyyvweiuaazfr.tif,61,0.0666666666666667,0.0666666666666667,1.71666666666667,2611.199616791,2612.153667625,13,2611.266492,2611.33245325,2612.172312375,2613.882359416,0,0.954050833999645
124,13,11,categorization,0,bathroom,SHINEd_sun_ahqjwnzgolcaoidx.tif,29,0.0666666666666667,0.0666666666666667,0.833333333333333,2613.90014475,2614.704116291,9,2613.967124583,2614.032650458,2614.722596458,2615.549268458,0,0.80397154100001
124,14,11,categorization,0,bathroom,SHINEd_sun_alkosphxlxwjwgjd.tif,34,0.0666666666666667,0.0666666666666667,0.783333333333333,2615.555375125,2616.373183458,13,2615.617115958,2615.67800325,2616.380448375,2617.157119375,1,0.817808332999903
124,15,11,categorization,0,kitchen,SHINEd_sun_akchetnepxlcxhsu.tif,98,0.0666666666666667,0.0666666666666667,0.866666666666667,2617.162776875,2618.661097666,13,2617.224479916,2617.285397,2618.671036083,2619.531041875,0,1.49832079099997
124,16,11,categorization,0,bathroom,SHINEd_sun_akiytfaagpdsphgz.tif,31,0.0666666666666667,0.0666666666666667,1.08333333333333,2619.535908833,2620.26954875,13,2619.597649875,2619.658657416,2620.277403083,2621.354106666,1,0.733639916999891
124,17,11,categorization,0,kitchen,SHINEd_sun_agorklincwxrdtga.tif,87,0.0666666666666667,0.0666666666666667,1.1,2621.365638333,2621.95421025,9,2621.431097291,2621.49825975,2621.971331791,2623.064700458,1,0.588571917000081
124,18,11,categorization,0,kitchen,SHINEd_sun_aeqdocilnnpuvuhx.tif,83,0.0666666666666667,0.0666666666666667,1.5,2623.081701875,2624.036588,9,2623.148720541,2623.214495958,2624.050157666,2625.54354875,1,0.95488612500003
124,19,11,categorization,0,bathroom,SHINEd_sun_ahaulkltgpkeeemi.tif,26,0.0666666666666667,0.0666666666666667,0.833333333333333,2625.562286291,2626.392945125,13,2625.627673375,2625.693234083,2626.41694875,2627.243622458,1,0.830658834000133
124,20,11,categorization,0,bathroom,SHINEd_sun_anryaplzeujmzfkd.tif,39,0.0666666666666667,0.0666666666666667,1.76666666666667,2627.249734,2628.188779583,13,2627.311402833,2627.3723705,2628.207737958,2629.967793541,1,0.939045582999825
124,21,11,categorization,0,bathroom,SHINEd_sun_aljolscmmzydegqp.tif,33,0.0666666666666667,0.0666666666666667,1.18333333333333,2629.986818666,2630.6632765,13,2630.054694125,2630.119692666,2630.693232083,2631.869942291,1,0.676457833999848
124,22,11,categorization,0,kitchen,SHINEd_sun_azmutvzbxypaceni.tif,110,0.0666666666666667,0.0666666666666667,0.933333333333333,2631.881372291,2632.664700416,13,2631.94827,2632.014371625,2632.687972458,2633.614699,0,0.783328125000025
124,23,11,categorization,0,kitchen,SHINEd_sun_acfmftudsenhrfhy.tif,74,0.0666666666666667,0.0666666666666667,0.716666666666667,2633.629891875,2634.796578,9,2633.696898666,2633.754451708,2634.806531916,2635.516537583,1,1.16668612500007
124,24,11,categorization,0,kitchen,SHINEd_sun_aexklacwqwezaorf.tif,84,0.0666666666666667,0.0666666666666667,1.25,2635.521908416,2636.125152125,9,2635.583611166,2635.644537416,2636.129935916,2637.373320833,1,0.603243709000253
124,25,11,categorization,0,bathroom,SHINEd_sun_atstyziqcmkahyxk.tif,51,0.0666666666666667,0.0666666666666667,0.866666666666667,2637.3899255,2638.066432333,13,2637.456653,2637.522772875,2638.076534583,2638.936591333,1,0.676506833000076
124,26,11,categorization,0,kitchen,SHINEd_sun_ahdycvpopffkzzsu.tif,90,0.0666666666666667,0.0666666666666667,1.08333333333333,2638.946496916,2639.549075166,13,2639.012630708,2639.078991541,2639.56482375,2640.641526875,0,0.602578250000079
124,27,11,categorization,0,bathroom,SHINEd_sun_asfwthctfqerjvxr.tif,49,0.0666666666666667,0.0666666666666667,1.9,2640.652371625,2641.376788208,13,2640.717034291,2640.778709916,2641.402161333,2643.295529541,1,0.72441658300022
124,28,11,categorization,0,bathroom,SHINEd_sun_aunuadmjocsddsrl.tif,52,0.0666666666666667,0.0666666666666667,0.866666666666667,2643.314246875,2644.487940458,9,2643.381440958,2643.447082583,2644.503058208,2645.363065416,0,1.17369358299993
124,29,11,categorization,0,kitchen,SHINEd_labelme_kxvouciolcpqplr.tif,62,0.0666666666666667,0.0666666666666667,1.05,2645.368788833,2646.117077,13,2645.430594041,2645.491394625,2646.1266935,2647.170079333,0,0.748288166999828
124,30,11,categorization,0,bathroom,SHINEd_sun_abjtwfukuwddzted.tif,15,0.0666666666666667,0.0666666666666667,1.65,2647.181948208,2647.936920583,13,2647.24674725,2647.31164625,2647.951219916,2649.594588208,1,0.754972374999852
124,31,11,categorization,0,kitchen,SHINEd_sun_abpwyqmlzafvklqo.tif,72,0.0666666666666667,0.0666666666666667,0.716666666666667,2649.614676208,2651.540630333,13,2649.681565625,2649.747171083,2651.549843,2652.259848416,0,1.92595412499986
124,32,11,categorization,0,kitchen,SHINEd_sun_aggjlwcdjsjcaemh.tif,86,0.0666666666666667,0.0666666666666667,1.36666666666667,2652.265396791,2653.821106625,13,2652.327308541,2652.388086583,2653.840868333,2655.200917125,0,1.55570983400003
124,33,11,categorization,0,kitchen,SHINEd_sun_aehawpgmrlhlvcow.tif,81,0.0666666666666667,0.0666666666666667,1.11666666666667,2655.218778041,2655.961299208,9,2655.285314083,2655.351183,2655.991394833,2657.101429125,1,0.742521167000177
124,34,11,categorization,0,bathroom,SHINEd_sun_aavhrsfjbserjtht.tif,13,0.0666666666666667,0.0666666666666667,0.983333333333333,2657.11237125,2658.781368166,13,2657.177679083,2657.24508325,2658.801826708,2659.778499833,1,1.6689969160002
124,35,11,categorization,0,kitchen,SHINEd_sun_aaxxjlsuzvqlgylf.tif,68,0.0666666666666667,0.0666666666666667,1.15,2659.784310083,2660.669375666,9,2659.845942,2659.906926541,2660.675687625,2661.819066791,1,0.885065583000141
124,36,11,categorization,0,kitchen,SHINEd_sun_avszsnwsbuqfgzbn.tif,105,0.0666666666666667,0.0666666666666667,1.08333333333333,2661.830223333,2662.463985541,9,2661.89681975,2661.9626685,2662.486124625,2663.56284175,1,0.633762208000007
124,37,11,categorization,0,bathroom,SHINEd_sun_avhrdrntsqrjzccq.tif,55,0.0666666666666667,0.0666666666666667,1.21666666666667,2663.580944958,2664.70054425,13,2663.647802208,2663.713315916,2664.715616833,2665.925661166,1,1.11959929199975
124,38,11,categorization,0,kitchen,SHINEd_sun_aymvwlarqodbwuoc.tif,108,0.0666666666666667,0.0666666666666667,0.783333333333333,2665.941292,2666.799875041,13,2666.009494416,2666.073288125,2666.828781041,2667.605483125,0,0.858583041000202
124,39,11,categorization,0,bathroom,SHINEd_sun_apmqjbnwghzuhhzh.tif,46,0.0666666666666667,0.0666666666666667,1,2667.62260225,2668.325034,13,2667.689423125,2667.75525275,2668.341281541,2669.334620583,1,0.70243174999996
124,40,11,categorization,0,bathroom,SHINEd_sun_acduarbnmmoglmiv.tif,16,0.0666666666666667,0.0666666666666667,1.83333333333333,2669.339676791,2671.109233875,9,2669.401401291,2669.462471375,2671.114761625,2672.941452583,0,1.7695570840001
124,41,11,categorization,0,bathroom,SHINEd_sun_aclfzgynxzxlbepz.tif,19,0.0666666666666667,0.0666666666666667,1.15,2672.951756416,2673.706464458,13,2673.018603083,2673.084151666,2673.723232583,2674.866611083,1,0.754708041999947
124,42,11,categorization,0,bathroom,SHINEd_sun_ahcvzmoyaycdoftf.tif,27,0.0666666666666667,0.0666666666666667,1.33333333333333,2674.876884791,2675.428248541,13,2674.941266916,2675.007527375,2675.447045416,2676.773731375,1,0.551363749999837
124,43,11,categorization,0,kitchen,SHINEd_sun_acxkpeoqbwcxfvip.tif,77,0.0666666666666667,0.0666666666666667,1.11666666666667,2676.7853305,2678.105599,13,2676.8521875,2676.912619708,2678.120908,2679.230942791,0,1.32026850000011
124,44,11,categorization,0,kitchen,SHINEd_sun_acgtpgfybqjmzeyw.tif,75,0.0666666666666667,0.0666666666666667,1.91666666666667,2679.240779583,2679.800315833,9,2679.30558,2679.373187041,2679.830177791,2681.740236625,1,0.559536249999837
124,45,11,categorization,0,kitchen,SHINEd_sun_ahywdevtimnqcsln.tif,94,0.0666666666666667,0.0666666666666667,0.783333333333333,2681.758801666,2682.617790416,9,2681.825514416,2681.890820125,2682.647461458,2683.424135666,1,0.858988749999753
124,46,11,categorization,0,kitchen,SHINEd_sun_abftihopvusyfakt.tif,71,0.0666666666666667,0.0666666666666667,1,2683.429725041,2684.420537541,9,2683.491450916,2683.552397958,2684.437694833,2685.431032958,1,0.990812500000175
124,47,11,categorization,0,bathroom,SHINEd_sun_aggnnqpdorgxpvce.tif,21,0.0666666666666667,0.0666666666666667,1.38333333333333,2685.436747166,2686.581135666,9,2685.498317666,2685.559361958,2686.594552291,2687.971270083,0,1.14438850000033
124,48,11,categorization,0,kitchen,SHINEd_sun_aenotlpyftoioydp.tif,82,0.0666666666666667,0.0666666666666667,1.55,2687.98557775,2688.751321625,9,2688.052631791,2688.118057041,2688.773388333,2690.316762166,1,0.765743874999771
124,49,11,categorization,0,kitchen,SHINEd_sun_agzzivivdpnawacl.tif,89,0.0666666666666667,0.0666666666666667,1.03333333333333,2690.334445,2690.926792208,13,2690.401045583,2690.466907333,2690.938148166,2691.964852083,0,0.592347207999865
124,50,11,categorization,0,bathroom,SHINEd_sun_alotolagknyrgtsk.tif,35,0.0666666666666667,0.0666666666666667,1.46666666666667,2691.976539666,2692.693649666,9,2692.041772458,2692.107581583,2692.714175625,2694.174220375,0,0.717110000000048
