sub_num,trial,block,task,is_practice,category,image,texture,duration,mask_dur,jitter,stim_time,time_of_resp,trial_response,mask_time,fix_time,jit_onset,trial_end,trial_accuracy,RT
124,1,13,categorization,0,kitchen,SHINEd_sun_aapllqyqlykszopd.tif,66,0.0666666666666667,0.0666666666666667,0.933333333333333,2827.668289833,2828.651850583,9,2827.730781291,2827.790902875,2828.659561166,2829.586236041,1,0.983560749999924
124,2,13,categorization,0,kitchen,SHINEd_sun_ahpczsiumwwocjkv.tif,92,0.0666666666666667,0.0666666666666667,1.36666666666667,2829.592100708,2830.412011291,9,2829.653854375,2829.714777833,2830.416639041,2831.776693041,1,0.81991058299991
124,3,13,categorization,0,bathroom,SHINEd_sun_avhrdrntsqrjzccq.tif,55,0.0666666666666667,0.0666666666666667,1.88333333333333,2831.796754416,2833.756368291,13,2831.863760666,2831.92978575,2833.766542916,2835.643264,1,1.95961387499983
124,4,13,categorization,0,kitchen,SHINEd_sun_abftihopvusyfakt.tif,71,0.0666666666666667,0.0666666666666667,1.35,2835.664600166,2836.421915583,9,2835.731802708,2835.796861166,2836.43669125,2837.780080083,1,0.757315416999973
124,5,13,categorization,0,bathroom,SHINEd_sun_ausgutylgojavyoq.tif,53,0.0666666666666667,0.0666666666666667,1.3,2837.79549875,2838.400484166,13,2837.86292275,2837.928193583,2838.41791075,2839.711283708,1,0.604985415999636
124,6,13,categorization,0,bathroom,SHINEd_sun_axyrejkiiaqiurjk.tif,59,0.0666666666666667,0.0666666666666667,1.93333333333333,2839.727010875,2840.551998208,9,2839.794209916,2839.86035575,2840.565946083,2842.492669625,0,0.824987333000081
124,7,13,categorization,0,bathroom,SHINEd_sun_anhioqovhscjqqwb.tif,38,0.0666666666666667,0.0666666666666667,0.95,2842.511598541,2843.199890041,13,2842.579015375,2842.644238083,2843.217848291,2844.161186416,1,0.688291500000105
124,8,13,categorization,0,bathroom,SHINEd_sun_axxbkopsgyouuebh.tif,58,0.0666666666666667,0.0666666666666667,1.56666666666667,2844.167185083,2844.740244125,13,2844.228917291,2844.289994583,2844.758455208,2846.318498041,1,0.573059042000295
124,9,13,categorization,0,bathroom,SHINEd_sun_ahaulkltgpkeeemi.tif,26,0.0666666666666667,0.0666666666666667,1.3,2846.333536833,2846.885648666,13,2846.401144541,2846.466031458,2846.906387291,2848.199766875,1,0.552111833000254
124,10,13,categorization,0,bathroom,SHINEd_sun_apeeialkgkuxddgh.tif,42,0.0666666666666667,0.0666666666666667,1.3,2848.217003541,2848.716079958,13,2848.283811958,2848.350375458,2848.74003775,2850.033467166,1,0.499076417000197
124,11,13,categorization,0,kitchen,SHINEd_labelme_brsyyvweiuaazfr.tif,61,0.0666666666666667,0.0666666666666667,1.03333333333333,2850.046095375,2851.295269666,13,2850.111106958,2850.178491875,2851.318763791,2852.345490583,0,1.24917429100014
124,12,13,categorization,0,kitchen,SHINEd_sun_ajkqhtgcbgpcwrwn.tif,97,0.0666666666666667,0.0666666666666667,1.93333333333333,2852.358890416,2853.660870125,13,2852.424400708,2852.489629833,2853.681093208,2855.607812333,0,1.30197970900008
124,13,13,categorization,0,kitchen,SHINEd_sun_aunzlwrbjumxhwdj.tif,103,0.0666666666666667,0.0666666666666667,0.966666666666667,2855.625800666,2856.395663416,9,2855.692788708,2855.75828875,2856.414601791,2857.374606875,1,0.769862749999902
124,14,13,categorization,0,bathroom,SHINEd_sun_ajlawzvmubibwbpy.tif,30,0.0666666666666667,0.0666666666666667,0.916666666666667,2857.380034875,2858.172640125,9,2857.441695041,2857.502721,2858.187866916,2859.097873208,0,0.792605249999724
124,15,13,categorization,0,kitchen,SHINEd_sun_acwjdupvyjsugpay.tif,76,0.0666666666666667,0.0666666666666667,1.3,2859.102839375,2860.67595975,9,2859.164517291,2859.225401375,2860.694700416,2861.98806575,1,1.57312037500014
124,16,13,categorization,0,kitchen,SHINEd_sun_acxkpeoqbwcxfvip.tif,77,0.0666666666666667,0.0666666666666667,0.75,2862.0062335,2862.733434375,9,2862.073403625,2862.1383685,2862.761747458,2863.505137166,1,0.727200875000108
124,17,13,categorization,0,kitchen,SHINEd_sun_aehawpgmrlhlvcow.tif,81,0.0666666666666667,0.0666666666666667,1.03333333333333,2863.521359,2864.324632416,9,2863.58794725,2863.653828333,2864.339513333,2865.366220791,1,0.803273416000138
124,18,13,categorization,0,kitchen,SHINEd_labelme_rykdqxenmhulbdn.tif,63,0.0666666666666667,0.0666666666666667,1.28333333333333,2865.379450458,2866.286213416,9,2865.444423958,2865.510449666,2866.2994275,2867.576136125,1,0.906762957999945
124,19,13,categorization,0,bathroom,SHINEd_sun_aclfzgynxzxlbepz.tif,19,0.0666666666666667,0.0666666666666667,1.25,2867.596852291,2868.726382458,9,2867.664258416,2867.729186625,2868.750555041,2869.993946875,0,1.12953016700021
124,20,13,categorization,0,bathroom,SHINEd_sun_ahcvzmoyaycdoftf.tif,27,0.0666666666666667,0.0666666666666667,1.75,2870.009662666,2870.59285375,13,2870.077846541,2870.142227666,2870.616139208,2872.359532666,1,0.583191083999736
124,21,13,categorization,0,kitchen,SHINEd_sun_aeqdocilnnpuvuhx.tif,83,0.0666666666666667,0.0666666666666667,1.76666666666667,2872.380244708,2873.327021416,9,2872.446863375,2872.512576416,2873.353202541,2875.113246,1,0.946776708000016
124,22,13,categorization,0,kitchen,SHINEd_sun_aamedkxepzlwuxes.tif,65,0.0666666666666667,0.0666666666666667,0.733333333333333,2875.130525708,2876.167508166,9,2875.19782375,2875.263251083,2876.18622,2876.912891166,1,1.03698245800024
124,23,13,categorization,0,bathroom,SHINEd_sun_akiytfaagpdsphgz.tif,31,0.0666666666666667,0.0666666666666667,1.43333333333333,2876.917972333,2877.859648458,13,2876.979705166,2877.040616333,2877.875962083,2879.302663333,1,0.941676124999958
124,24,13,categorization,0,kitchen,SHINEd_sun_aexklacwqwezaorf.tif,84,0.0666666666666667,0.0666666666666667,1.81666666666667,2879.321346375,2880.38476,9,2879.388459333,2879.453789666,2880.410922625,2882.220962375,1,1.06341362500007
124,25,13,categorization,0,bathroom,SHINEd_sun_apkruvsevgegsdwp.tif,44,0.0666666666666667,0.0666666666666667,0.95,2882.239767,2882.979557041,13,2882.306800375,2882.371978458,2882.993815708,2883.937153583,1,0.739790041000106
124,26,13,categorization,0,bathroom,SHINEd_sun_afcoljnjfoxjtgja.tif,20,0.0666666666666667,0.0666666666666667,0.783333333333333,2883.945574833,2884.540409916,13,2884.007405041,2884.068261958,2884.553671791,2885.330343083,1,0.594835082999907
124,27,13,categorization,0,kitchen,SHINEd_sun_abpwyqmlzafvklqo.tif,72,0.0666666666666667,0.0666666666666667,1.66666666666667,2885.335598166,2886.084094291,13,2885.397366625,2885.458163666,2886.093307666,2887.75336175,0,0.748496124999747
124,28,13,categorization,0,kitchen,SHINEd_sun_abdenxonkemggwsq.tif,69,0.0666666666666667,0.0666666666666667,1.18333333333333,2887.772955166,2888.792344708,9,2887.839640875,2887.905318458,2888.810416666,2889.987128625,1,1.01938954200023
124,29,13,categorization,0,kitchen,SHINEd_sun_aggjlwcdjsjcaemh.tif,86,0.0666666666666667,0.0666666666666667,1.58333333333333,2889.996790083,2890.739501625,13,2890.065168333,2890.129046541,2890.7679315,2892.344647583,0,0.742711541999597
124,30,13,categorization,0,kitchen,SHINEd_sun_ahljzhgcdpomplvg.tif,91,0.0666666666666667,0.0666666666666667,1.1,2892.363298333,2893.241056375,9,2892.430158291,2892.495595375,2893.269229583,2894.362602708,1,0.877758042000096
124,31,13,categorization,0,kitchen,SHINEd_sun_akchetnepxlcxhsu.tif,98,0.0666666666666667,0.0666666666666667,1.78333333333333,2894.372523666,2895.310554041,13,2894.43783925,2894.50520325,2895.328241166,2897.104961916,0,0.93803037500038
124,32,13,categorization,0,bathroom,SHINEd_sun_aghyqhbptboemmoq.tif,23,0.0666666666666667,0.0666666666666667,1.78333333333333,2897.124629416,2898.012109625,13,2897.191336833,2897.256714791,2898.029753583,2899.806456083,1,0.887480208999932
124,33,13,categorization,0,kitchen,SHINEd_sun_aadbddgrdsjugojn.tif,64,0.0666666666666667,0.0666666666666667,1.08333333333333,2899.826851166,2900.878719458,9,2899.893922333,2899.959441791,2900.899999875,2901.976712041,1,1.05186829200011
124,34,13,categorization,0,bathroom,SHINEd_sun_axldvoqbuvuggfmq.tif,57,0.0666666666666667,0.0666666666666667,1.66666666666667,2901.989436333,2902.926973708,13,2902.054510125,2902.121285583,2902.942938208,2904.602983041,1,0.93753737499992
124,35,13,categorization,0,kitchen,SHINEd_sun_ahdycvpopffkzzsu.tif,90,0.0666666666666667,0.0666666666666667,1.58333333333333,2904.621017416,2905.40607825,9,2904.688260416,2904.752369083,2905.425923916,2907.002645916,1,0.785060833999978
124,36,13,categorization,0,kitchen,SHINEd_sun_avszsnwsbuqfgzbn.tif,105,0.0666666666666667,0.0666666666666667,1.26666666666667,2907.022038666,2907.72819925,9,2907.089853208,2907.154846083,2907.74431825,2909.004378541,1,0.706160584000372
124,37,13,categorization,0,kitchen,SHINEd_sun_abdxkyyxwfskuaqb.tif,70,0.0666666666666667,0.0666666666666667,0.966666666666667,2909.016763333,2909.968861666,9,2909.084327208,2909.149464333,2909.990363,2910.950366875,1,0.952098332999867
124,38,13,categorization,0,kitchen,SHINEd_sun_aymvwlarqodbwuoc.tif,108,0.0666666666666667,0.0666666666666667,0.9,2910.955576291,2911.684255833,13,2911.017444458,2911.078060125,2911.69646025,2912.589799125,0,0.728679542000009
124,39,13,categorization,0,kitchen,SHINEd_sun_acgtpgfybqjmzeyw.tif,75,0.0666666666666667,0.0666666666666667,1.46666666666667,2912.59526725,2913.340162208,9,2912.6568815,2912.717862791,2913.353063791,2914.813123416,1,0.744894958000259
124,40,13,categorization,0,bathroom,SHINEd_sun_ahijqszoswveeyji.tif,28,0.0666666666666667,0.0666666666666667,1.5,2914.822570958,2915.600450583,9,2914.889332458,2914.949403125,2915.622383541,2917.115763625,0,0.777879624999969
124,41,13,categorization,0,bathroom,SHINEd_sun_aapitsgbtktqubfy.tif,12,0.0666666666666667,0.0666666666666667,0.716666666666667,2917.133356458,2921.164238833,13,2917.200123416,2917.265807625,2921.185549041,2921.895556458,1,4.03088237500015
124,42,13,categorization,0,kitchen,SHINEd_sun_agubuxuukhzyzpdp.tif,88,0.0666666666666667,0.0666666666666667,1.5,2921.900831666,2922.939448,9,2921.9625485,2922.023471541,2922.95876125,2924.452153541,1,1.03861633399993
124,43,13,categorization,0,kitchen,SHINEd_sun_amjjdeyrggfqgmom.tif,100,0.0666666666666667,0.0666666666666667,0.866666666666667,2924.470637291,2925.422922833,9,2924.537244125,2924.60288325,2925.442599833,2926.302604958,1,0.952285542000027
124,44,13,categorization,0,kitchen,SHINEd_sun_awcpdzzznmweyyhv.tif,106,0.0666666666666667,0.0666666666666667,0.933333333333333,2926.308390666,2927.36437875,9,2926.370425666,2926.431031625,2927.383125875,2928.30979775,1,1.05598808400009
124,45,13,categorization,0,bathroom,SHINEd_sun_acduarbnmmoglmiv.tif,16,0.0666666666666667,0.0666666666666667,1.55,2928.315572083,2929.315613208,9,2928.377262458,2928.438065,2929.323499958,2930.866875333,0,1.00004112499983
124,46,13,categorization,0,bathroom,SHINEd_sun_agrwbmhcpmfuwmsg.tif,24,0.0666666666666667,0.0666666666666667,1.3,2930.878304375,2931.677180666,13,2930.942862833,2931.009946291,2931.70049875,2932.993881083,1,0.798876290999942
124,47,13,categorization,0,bathroom,SHINEd_sun_acgyywnybuveqsro.tif,18,0.0666666666666667,0.0666666666666667,1.78333333333333,2933.005414541,2933.712853666,13,2933.07243375,2933.137689666,2933.727162583,2935.503871916,1,0.707439124999837
124,48,13,categorization,0,bathroom,SHINEd_sun_asfwthctfqerjvxr.tif,49,0.0666666666666667,0.0666666666666667,1.8,2935.523712333,2936.719180375,13,2935.590790041,2935.655807791,2936.746315,2938.539697916,1,1.19546804200036
124,49,13,categorization,0,bathroom,SHINEd_sun_atstyziqcmkahyxk.tif,51,0.0666666666666667,0.0666666666666667,0.816666666666667,2938.558179583,2939.373832041,13,2938.62519075,2938.69030275,2939.398235875,2940.208242875,1,0.815652457999931
124,50,13,categorization,0,bathroom,SHINEd_sun_aljolscmmzydegqp.tif,33,0.0666666666666667,0.0666666666666667,0.966666666666667,2940.214402,2940.939942166,13,2940.276182083,2940.337068166,2940.95566725,2941.915670916,1,0.725540165999973
