sub_num,trial,block,task,is_practice,category,image,texture,duration,mask_dur,jitter,stim_time,time_of_resp,trial_response,mask_time,fix_time,jit_onset,trial_end,trial_accuracy,RT
124,1,0,categorization,1,kitchen,SHINEd_kitchen_practice2.tif,117,0.0666666666666667,0.0666666666666667,1.21666666666667,1231.850458,1237.651140458,9,1231.916607875,1231.977202166,1237.68406175,1238.894093291,1,5.80068245800021
124,2,0,categorization,1,bathroom,SHINEd_bathroom_practice3.tif,113,0.0666666666666667,0.0666666666666667,1.36666666666667,1238.907482666,1240.930056416,13,1238.9700525,1239.030384916,1240.94981975,1242.309973625,1,2.02257374999999
124,3,0,categorization,1,kitchen,SHINEd_kitchen_practice1.tif,116,0.0666666666666667,0.0666666666666667,1.85,1242.361337375,1245.683794541,9,1242.435465,1242.495482083,1245.700560583,1247.544083416,1,3.32245716600005
124,4,0,categorization,1,bathroom,SHINEd_bathroom_practice1.tif,111,0.0666666666666667,0.0666666666666667,1.55,1247.5725795,1248.45865825,13,1247.642391291,1247.705871916,1248.485524541,1250.029058458,1,0.886078750000024
124,5,0,categorization,1,bathroom,SHINEd_bathroom_practice2.tif,112,0.0666666666666667,0.0666666666666667,1.48333333333333,1250.061746541,1252.970132083,13,1250.13478675,1250.196439041,1252.983359375,1254.460815541,1,2.90838554199991
124,6,0,categorization,1,kitchen,SHINEd_kitchen_practice5.tif,120,0.0666666666666667,0.0666666666666667,1.15,1254.489402708,1256.362661625,13,1254.557826791,1254.623548833,1256.376359208,1257.519864833,0,1.87325891700016
124,7,0,categorization,1,bathroom,SHINEd_bathroom_practice5.tif,115,0.0666666666666667,0.0666666666666667,0.733333333333333,1257.530847541,1259.834764916,13,1257.597833333,1257.664706958,1259.851024333,1260.57769825,1,2.30391737500008
124,8,0,categorization,1,kitchen,SHINEd_kitchen_practice3.tif,118,0.0666666666666667,0.0666666666666667,1.6,1260.583391416,1261.963014083,9,1260.645141416,1260.706146541,1261.975316375,1263.568689541,1,1.37962266699992
124,9,0,categorization,1,kitchen,SHINEd_kitchen_practice4.tif,119,0.0666666666666667,0.0666666666666667,0.716666666666667,1263.592297791,1265.602094666,13,1263.6592985,1263.726191208,1265.61236325,1266.32237125,0,2.00979687500012
124,10,0,categorization,1,bathroom,SHINEd_bathroom_practice4.tif,114,0.0666666666666667,0.0666666666666667,1.21666666666667,1266.328060916,1267.186690291,13,1266.389827833,1266.450849708,1267.20277925,1268.412838041,1,0.858629375000191
124,1,1,categorization,0,kitchen,SHINEd_sun_ahywdevtimnqcsln.tif,94,0.0666666666666667,0.0666666666666667,1.23333333333333,1316.370342416,1319.434649708,13,1316.432778291,1316.493022958,1319.445741708,1320.672466458,0,3.06430729199997
124,2,1,categorization,0,kitchen,SHINEd_sun_akcjzhbbjlbogpdi.tif,99,0.0666666666666667,0.0666666666666667,0.783333333333333,1320.689843416,1323.409922416,13,1320.754689291,1320.820106791,1323.422406458,1324.199078125,0,2.72007899999994
124,3,1,categorization,0,bathroom,SHINEd_sun_ahcvzmoyaycdoftf.tif,27,0.0666666666666667,0.0666666666666667,0.75,1324.204785083,1325.066574208,13,1324.266550458,1324.327484291,1325.079324208,1325.822664666,1,0.861789125000087
124,4,1,categorization,0,bathroom,SHINEd_sun_avhrdrntsqrjzccq.tif,55,0.0666666666666667,0.0666666666666667,1.23333333333333,1325.828368291,1327.258634625,9,1325.890066791,1325.950925458,1327.269920083,1328.49664075,0,1.43026633399995
124,5,1,categorization,0,kitchen,SHINEd_sun_avszsnwsbuqfgzbn.tif,105,0.0666666666666667,0.0666666666666667,1.13333333333333,1328.513230333,1329.746388875,9,1328.579354166,1328.64592825,1329.771680458,1330.898384875,1,1.23315854200018
124,6,1,categorization,0,bathroom,SHINEd_sun_atstyziqcmkahyxk.tif,51,0.0666666666666667,0.0666666666666667,0.95,1330.908213583,1332.641949666,9,1330.973195875,1331.037259958,1332.663067,1333.6064055,0,1.73373608300017
124,7,1,categorization,0,kitchen,SHINEd_sun_abdenxonkemggwsq.tif,69,0.0666666666666667,0.0666666666666667,0.733333333333333,1333.612156583,1335.066137083,9,1333.67403225,1333.734732833,1335.070503083,1335.797176375,1,1.45398050000017
124,8,1,categorization,0,bathroom,SHINEd_sun_apeeialkgkuxddgh.tif,42,0.0666666666666667,0.0666666666666667,1.31666666666667,1335.802402458,1336.530556,13,1335.864401625,1335.925073958,1336.543801958,1337.853857625,1,0.728153541999973
124,9,1,categorization,0,kitchen,SHINEd_sun_aunzlwrbjumxhwdj.tif,103,0.0666666666666667,0.0666666666666667,0.8,1337.871320666,1340.882059916,13,1337.938196416,1338.003592083,1340.889353166,1341.682692291,0,3.01073924999992
124,10,1,categorization,0,kitchen,SHINEd_sun_admlmbcdswaszruo.tif,79,0.0666666666666667,0.0666666666666667,0.716666666666667,1341.688263583,1343.161687083,9,1341.750136083,1341.810862208,1343.1799015,1343.889906125,1,1.47342350000008
124,11,1,categorization,0,bathroom,SHINEd_labelme_sfxiulhjbhlyiyt.tif,11,0.0666666666666667,0.0666666666666667,0.916666666666667,1343.89535075,1344.730163666,13,1343.957062166,1344.017935333,1344.73661625,1345.646620458,1,0.834812915999919
124,12,1,categorization,0,bathroom,SHINEd_sun_agguqiubmwhqqunb.tif,22,0.0666666666666667,0.0666666666666667,0.95,1345.65228825,1347.586489458,13,1345.714022458,1345.775061083,1347.59462275,1348.537962583,1,1.93420120799988
124,13,1,categorization,0,kitchen,SHINEd_sun_acfmftudsenhrfhy.tif,74,0.0666666666666667,0.0666666666666667,0.833333333333333,1348.542872416,1349.802426041,9,1348.604594791,1348.665433041,1349.818045083,1350.644717833,1,1.25955362500008
124,14,1,categorization,0,bathroom,SHINEd_sun_ahaulkltgpkeeemi.tif,26,0.0666666666666667,0.0666666666666667,0.75,1350.649948166,1352.329908041,9,1350.711576375,1350.772545375,1352.341621708,1353.084959125,0,1.67995987499989
124,15,1,categorization,0,bathroom,SHINEd_sun_alotolagknyrgtsk.tif,35,0.0666666666666667,0.0666666666666667,1.53333333333333,1353.089556125,1354.298473958,13,1353.151206916,1353.212154666,1354.314243166,1355.840945333,1,1.20891783299999
124,16,1,categorization,0,kitchen,SHINEd_sun_aqeaevwwwjoqhzvl.tif,101,0.0666666666666667,0.0666666666666667,1.05,1355.8593955,1357.402205083,9,1355.926371041,1355.991815083,1357.411788916,1358.455165458,1,1.54280958300001
124,17,1,categorization,0,kitchen,SHINEd_sun_aeqdocilnnpuvuhx.tif,83,0.0666666666666667,0.0666666666666667,0.9,1358.4659415,1360.978172333,9,1358.531275625,1358.594676916,1360.997280708,1361.890619583,1,2.51223083299988
124,18,1,categorization,0,kitchen,SHINEd_sun_aamedkxepzlwuxes.tif,65,0.0666666666666667,0.0666666666666667,1.18333333333333,1361.896298166,1363.994387375,13,1361.95805375,1362.018812291,1364.004895583,1365.181617708,0,2.09808920900014
124,19,1,categorization,0,kitchen,SHINEd_labelme_brsyyvweiuaazfr.tif,61,0.0666666666666667,0.0666666666666667,0.9,1365.191617875,1366.499336791,13,1365.2586965,1365.323815083,1366.512972875,1367.406312375,0,1.30771891599989
124,20,1,categorization,0,bathroom,SHINEd_sun_apkxzenqapsujocq.tif,45,0.0666666666666667,0.0666666666666667,1.66666666666667,1367.411854625,1368.466211125,13,1367.4735135,1367.534444041,1368.469978125,1370.130033416,1,1.05435650000004
124,21,1,categorization,0,bathroom,SHINEd_sun_aoybiabnpadelefl.tif,41,0.0666666666666667,0.0666666666666667,1.13333333333333,1370.148663625,1371.579622083,9,1370.215554458,1370.280489083,1371.602823708,1372.729545958,0,1.43095845800008
124,22,1,categorization,0,kitchen,SHINEd_sun_acwjdupvyjsugpay.tif,76,0.0666666666666667,0.0666666666666667,1.3,1372.739261875,1373.68240375,9,1372.804721875,1372.871885833,1373.713543541,1375.006917708,1,0.943141875000038
124,23,1,categorization,0,kitchen,SHINEd_sun_acxkpeoqbwcxfvip.tif,77,0.0666666666666667,0.0666666666666667,1.93333333333333,1375.019832875,1376.140577375,9,1375.086904916,1375.152409291,1376.158635708,1378.085360708,1,1.1207445
124,24,1,categorization,0,bathroom,SHINEd_sun_apjevzvycyhuqghb.tif,43,0.0666666666666667,0.0666666666666667,1,1378.10636825,1378.894274083,13,1378.173197,1378.238655958,1378.910285125,1379.903624458,1,0.787905832999968
124,25,1,categorization,0,bathroom,SHINEd_sun_aleqenyvunhactkl.tif,32,0.0666666666666667,0.0666666666666667,0.883333333333333,1379.909413708,1381.050269291,13,1379.971181875,1380.032122666,1381.067474875,1381.94414825,1,1.14085558299985
124,26,1,categorization,0,kitchen,SHINEd_sun_ahdycvpopffkzzsu.tif,90,0.0666666666666667,0.0666666666666667,1.95,1381.948846791,1383.449600541,13,1382.010735791,1382.071437958,1383.457007583,1385.40037475,0,1.50075375000006
124,27,1,categorization,0,bathroom,SHINEd_sun_acduarbnmmoglmiv.tif,16,0.0666666666666667,0.0666666666666667,1.25,1385.421551166,1387.409712916,13,1385.488301666,1385.553776,1387.423018333,1388.666401916,1,1.98816175000002
124,28,1,categorization,0,bathroom,SHINEd_sun_aclfzgynxzxlbepz.tif,19,0.0666666666666667,0.0666666666666667,1.95,1388.684269625,1389.597257083,13,1388.750778291,1388.814498166,1389.621538791,1391.564910416,1,0.912987457999861
124,29,1,categorization,0,bathroom,SHINEd_sun_apynckhmoftszqoq.tif,47,0.0666666666666667,0.0666666666666667,1.91666666666667,1391.583495083,1392.618771916,9,1391.650363875,1391.716317583,1392.639601708,1394.549641625,0,1.03527683300013
124,30,1,categorization,0,kitchen,SHINEd_sun_ajcbwwvdlsvjyzje.tif,96,0.0666666666666667,0.0666666666666667,1.41666666666667,1394.571469875,1397.081739625,13,1394.638993708,1394.704047958,1397.089847166,1398.4999005,0,2.51026974999991
124,31,1,categorization,0,bathroom,SHINEd_sun_abjtwfukuwddzted.tif,15,0.0666666666666667,0.0666666666666667,0.716666666666667,1398.518331666,1400.649692125,13,1398.586720291,1398.651183625,1400.653981666,1401.363986708,1,2.13136045900001
124,32,1,categorization,0,bathroom,SHINEd_sun_aghyqhbptboemmoq.tif,23,0.0666666666666667,0.0666666666666667,1.28333333333333,1401.369622416,1402.753772916,13,1401.43155575,1401.492577416,1402.761427541,1404.038149666,1,1.38415049999981
124,33,1,categorization,0,bathroom,SHINEd_sun_ausgutylgojavyoq.tif,53,0.0666666666666667,0.0666666666666667,0.9,1404.05622025,1405.302451458,13,1404.123215833,1404.188903916,1405.331825083,1406.225164875,1,1.24623120799993
124,34,1,categorization,0,kitchen,SHINEd_sun_akchetnepxlcxhsu.tif,98,0.0666666666666667,0.0666666666666667,0.8,1406.230904166,1407.105286875,13,1406.292798208,1406.353586708,1407.122054375,1407.915394791,0,0.874382708999974
124,35,1,categorization,0,bathroom,SHINEd_sun_acgyywnybuveqsro.tif,18,0.0666666666666667,0.0666666666666667,1.01666666666667,1407.921120625,1409.673676416,9,1407.982781416,1408.04363725,1409.679550333,1410.68960875,0,1.75255579100008
124,36,1,categorization,0,bathroom,SHINEd_sun_alkosphxlxwjwgjd.tif,34,0.0666666666666667,0.0666666666666667,0.85,1410.698406458,1413.986324291,13,1410.762931416,1410.829739333,1414.015050458,1414.858389958,1,3.28791783300017
124,37,1,categorization,0,kitchen,SHINEd_sun_aapllqyqlykszopd.tif,66,0.0666666666666667,0.0666666666666667,1.51666666666667,1414.862856166,1416.546136125,9,1414.924610291,1414.985440375,1416.554470583,1418.064515375,1,1.68327995899995
124,38,1,categorization,0,kitchen,SHINEd_labelme_rykdqxenmhulbdn.tif,63,0.0666666666666667,0.0666666666666667,1.83333333333333,1418.083704791,1419.037879625,13,1418.150165375,1418.215891791,1419.054510875,1420.881228916,0,0.954174834000014
124,39,1,categorization,0,kitchen,SHINEd_sun_axyyrmzcupyhlivc.tif,107,0.0666666666666667,0.0666666666666667,0.716666666666667,1420.900977125,1422.038739666,13,1420.96586,1421.033702583,1422.056568666,1422.766574583,0,1.13776254100003
124,40,1,categorization,0,bathroom,SHINEd_sun_abapwbhyhkfixyex.tif,14,0.0666666666666667,0.0666666666666667,0.9,1422.771891,1423.937732666,13,1422.833827083,1422.894528625,1423.946899166,1424.8402385,1,1.16584166600001
124,41,1,categorization,0,bathroom,SHINEd_sun_agyqfjcfkdcydepw.tif,25,0.0666666666666667,0.0666666666666667,0.916666666666667,1424.84480525,1425.681945333,9,1424.906454708,1424.967450458,1425.686420625,1426.596425791,0,0.837140082999895
124,42,1,categorization,0,kitchen,SHINEd_sun_abftihopvusyfakt.tif,71,0.0666666666666667,0.0666666666666667,0.816666666666667,1426.602220916,1428.217479208,9,1426.664005333,1426.724766791,1428.227254,1429.037260666,1,1.61525829199991
124,43,1,categorization,0,kitchen,SHINEd_sun_agubuxuukhzyzpdp.tif,88,0.0666666666666667,0.0666666666666667,1.88333333333333,1429.042794875,1431.281571166,9,1429.104552625,1429.165480375,1431.301235833,1433.177937125,1,2.23877629100002
124,44,1,categorization,0,bathroom,SHINEd_sun_aqrpegblszgcoujh.tif,48,0.0666666666666667,0.0666666666666667,0.9,1433.196879625,1435.882040375,9,1433.263725375,1433.329448625,1435.898333416,1436.791671583,0,2.68516075000002
124,45,1,categorization,0,bathroom,SHINEd_sun_amzlamotzwfkwjco.tif,37,0.0666666666666667,0.0666666666666667,1,1436.796507875,1437.745406958,13,1436.858289041,1436.919307458,1437.754869958,1438.748207541,1,0.948899083000015
124,46,1,categorization,0,bathroom,SHINEd_sun_auzqhkafidnkrwmo.tif,54,0.0666666666666667,0.0666666666666667,0.733333333333333,1438.753168208,1440.049496541,13,1438.814887916,1438.875771791,1440.061424041,1440.788095041,1,1.29632833300002
124,47,1,categorization,0,kitchen,SHINEd_sun_aymvwlarqodbwuoc.tif,108,0.0666666666666667,0.0666666666666667,0.883333333333333,1440.792622166,1444.1832595,13,1440.854398541,1440.915779625,1444.201899541,1445.078571875,0,3.39063733400008
124,48,1,categorization,0,kitchen,SHINEd_sun_aixorpehvfykdynp.tif,95,0.0666666666666667,0.0666666666666667,1.73333333333333,1445.084825625,1447.009855125,13,1445.146601041,1445.207427083,1447.026550875,1448.753270416,0,1.92502950000016
124,49,1,categorization,0,bathroom,SHINEd_sun_aljolscmmzydegqp.tif,33,0.0666666666666667,0.0666666666666667,1.91666666666667,1448.764819458,1450.977886375,13,1448.8308185,1448.897116791,1450.983153833,1452.893208416,1,2.21306691700011
124,50,1,categorization,0,kitchen,SHINEd_sun_ahspylgoovwmwvgk.tif,93,0.0666666666666667,0.0666666666666667,1.35,1452.909715291,1453.931441833,9,1452.974550833,1453.0422665,1453.947315041,1455.290698416,1,1.0217265419999
124,1,2,categorization,0,bathroom,SHINEd_sun_aavhrsfjbserjtht.tif,13,0.0666666666666667,0.0666666666666667,0.95,1467.789279541,1468.857148916,9,1467.851779708,1467.911955458,1468.863789583,1469.807128083,0,1.06786937499987
124,2,2,categorization,0,bathroom,SHINEd_sun_ambriybtogmepttm.tif,36,0.0666666666666667,0.0666666666666667,0.75,1469.812874125,1471.521963416,9,1469.874686041,1469.935515625,1471.537913708,1472.281252791,0,1.70908929100005
124,3,2,categorization,0,bathroom,SHINEd_sun_aggnnqpdorgxpvce.tif,21,0.0666666666666667,0.0666666666666667,1.68333333333333,1472.286832833,1473.377749875,13,1472.348521291,1472.4094075,1473.394536041,1475.071245166,1,1.090917042
124,4,2,categorization,0,bathroom,SHINEd_sun_ahqjwnzgolcaoidx.tif,29,0.0666666666666667,0.0666666666666667,0.816666666666667,1475.087053041,1476.20897,13,1475.154085916,1475.219861916,1476.224638416,1477.034643416,1,1.12191695899992
124,5,2,categorization,0,bathroom,SHINEd_sun_akiytfaagpdsphgz.tif,31,0.0666666666666667,0.0666666666666667,0.916666666666667,1477.039564333,1478.24924225,13,1477.101415291,1477.162338541,1478.264267458,1479.174272833,1,1.20967791699991
124,6,2,categorization,0,kitchen,SHINEd_sun_ahljzhgcdpomplvg.tif,91,0.0666666666666667,0.0666666666666667,1.21666666666667,1479.178967916,1480.458001625,9,1479.240741,1479.301488791,1480.470566291,1481.680624375,1,1.27903370900003
124,7,2,categorization,0,kitchen,SHINEd_sun_auaiucuqpdausiva.tif,102,0.0666666666666667,0.0666666666666667,0.9,1481.69851075,1485.33327525,9,1481.766607541,1481.831676291,1485.351035541,1486.244372833,1,3.63476450000007
124,8,2,categorization,0,kitchen,SHINEd_sun_aypmqwcualkenuoe.tif,109,0.0666666666666667,0.0666666666666667,1.65,1486.249338166,1487.233884416,13,1486.311094708,1486.371959041,1487.240484041,1488.883859791,0,0.984546249999994
124,9,2,categorization,0,kitchen,SHINEd_sun_aadbddgrdsjugojn.tif,64,0.0666666666666667,0.0666666666666667,1.15,1488.903055208,1490.585238791,9,1488.968197875,1489.035800083,1490.605196541,1491.748582041,1,1.68218358299987
124,10,2,categorization,0,kitchen,SHINEd_sun_agzzivivdpnawacl.tif,89,0.0666666666666667,0.0666666666666667,1.13333333333333,1491.758288041,1492.603095291,13,1491.825391666,1491.89180475,1492.631790041,1493.758514166,0,0.844807250000031
124,11,2,categorization,0,kitchen,SHINEd_sun_acgtpgfybqjmzeyw.tif,75,0.0666666666666667,0.0666666666666667,1.76666666666667,1493.769339541,1494.836780083,9,1493.836303791,1493.902170208,1494.859260083,1496.61930675,1,1.06744054199999
124,12,2,categorization,0,bathroom,SHINEd_sun_asfwthctfqerjvxr.tif,49,0.0666666666666667,0.0666666666666667,1.8,1496.637712791,1497.838553041,13,1496.70474225,1496.768443041,1497.858344541,1499.651733916,1,1.20084025000006
124,13,2,categorization,0,bathroom,SHINEd_sun_azqyogdvyhahyram.tif,60,0.0666666666666667,0.0666666666666667,0.9,1499.671175791,1500.56387825,13,1499.738345791,1499.803867458,1500.575522041,1501.468859958,1,0.89270245900002
124,14,2,categorization,0,bathroom,SHINEd_sun_acegryoqftbzowsg.tif,17,0.0666666666666667,0.0666666666666667,0.716666666666667,1501.474930666,1502.42510575,9,1501.536670375,1501.597600125,1502.432799041,1503.142804458,0,0.950175083999966
124,15,2,categorization,0,bathroom,SHINEd_sun_axxbkopsgyouuebh.tif,58,0.0666666666666667,0.0666666666666667,1.36666666666667,1503.147942208,1503.929042,13,1503.209723125,1503.270621125,1503.939240125,1505.299283041,1,0.781099792000077
124,16,2,categorization,0,kitchen,SHINEd_sun_abrcnpqqhmjwekyf.tif,73,0.0666666666666667,0.0666666666666667,0.916666666666667,1505.316940291,1506.296683583,9,1505.384061666,1505.44952175,1506.323152041,1507.233157791,1,0.979743291999966
124,17,2,categorization,0,bathroom,SHINEd_sun_apkruvsevgegsdwp.tif,44,0.0666666666666667,0.0666666666666667,0.716666666666667,1507.238950958,1508.313230958,13,1507.3006705,1507.361762791,1508.330451333,1509.040455833,1,1.07428000000004
124,18,2,categorization,0,kitchen,SHINEd_sun_afuyedyxivkhecmu.tif,85,0.0666666666666667,0.0666666666666667,0.766666666666667,1509.045406125,1510.449581291,9,1509.107249625,1509.168013166,1510.453511125,1511.213515625,1,1.40417516599996
124,19,2,categorization,0,kitchen,SHINEd_sun_aenotlpyftoioydp.tif,82,0.0666666666666667,0.0666666666666667,1.06666666666667,1511.219093,1512.153409666,9,1511.280810958,1511.341704458,1512.160719916,1513.220785875,1,0.934316666000086
124,20,2,categorization,0,kitchen,SHINEd_sun_aegoxogugdkwpmpj.tif,80,0.0666666666666667,0.0666666666666667,0.8,1513.236212458,1513.98817825,9,1513.301453166,1513.367305041,1514.007359416,1514.80075825,1,0.751965791999964
124,21,2,categorization,0,bathroom,SHINEd_sun_ahijqszoswveeyji.tif,28,0.0666666666666667,0.0666666666666667,0.866666666666667,1514.812302625,1515.977814416,9,1514.879507333,1514.942507916,1515.994927625,1516.854933458,0,1.16551179099997
124,22,2,categorization,0,kitchen,SHINEd_sun_aaxxjlsuzvqlgylf.tif,68,0.0666666666666667,0.0666666666666667,1.48333333333333,1516.859593708,1518.753460833,9,1516.921314833,1516.982179833,1518.767894833,1520.244599291,1,1.89386712500004
124,23,2,categorization,0,bathroom,SHINEd_sun_axyrejkiiaqiurjk.tif,59,0.0666666666666667,0.0666666666666667,1.1,1520.258255333,1521.691446333,9,1520.325328291,1520.390759,1521.717174416,1522.810570083,0,1.43319099999985
124,24,2,categorization,0,bathroom,SHINEd_sun_aapitsgbtktqubfy.tif,12,0.0666666666666667,0.0666666666666667,0.783333333333333,1522.82231975,1523.5849245,13,1522.887234166,1522.950053625,1523.606719541,1524.383441041,1,0.762604750000037
124,25,2,categorization,0,kitchen,SHINEd_sun_awcpdzzznmweyyhv.tif,106,0.0666666666666667,0.0666666666666667,0.866666666666667,1524.40042325,1525.217340125,13,1524.467356125,1524.532729708,1525.234701666,1526.094708291,0,0.816916875000061
124,26,2,categorization,0,bathroom,SHINEd_sun_aunuadmjocsddsrl.tif,52,0.0666666666666667,0.0666666666666667,1.83333333333333,1526.101560666,1527.169483708,9,1526.163301458,1526.224074333,1527.175988375,1529.002700916,0,1.06792304199985
124,27,2,categorization,0,kitchen,SHINEd_sun_abpwyqmlzafvklqo.tif,72,0.0666666666666667,0.0666666666666667,0.7,1529.015424791,1529.829357583,13,1529.080554958,1529.147940958,1529.854513166,1530.547852708,0,0.81393279200006
124,28,2,categorization,0,kitchen,SHINEd_sun_abdxkyyxwfskuaqb.tif,70,0.0666666666666667,0.0666666666666667,1.33333333333333,1530.553780208,1531.377224125,9,1530.615314833,1530.67638975,1531.394996541,1532.72170925,1,0.823443917000077
124,29,2,categorization,0,bathroom,SHINEd_sun_axldvoqbuvuggfmq.tif,57,0.0666666666666667,0.0666666666666667,1.33333333333333,1532.739478833,1534.1083945,13,1532.804964958,1532.872307708,1534.129770583,1535.456475333,1,1.36891566700001
124,30,2,categorization,0,bathroom,SHINEd_sun_afcoljnjfoxjtgja.tif,20,0.0666666666666667,0.0666666666666667,1.38333333333333,1535.474458416,1536.2912035,9,1535.54133,1535.60675275,1536.313684958,1537.690399375,0,0.816745083999876
124,31,2,categorization,0,kitchen,SHINEd_sun_azmutvzbxypaceni.tif,110,0.0666666666666667,0.0666666666666667,1.25,1537.709910916,1539.333759041,13,1537.778492791,1537.842512041,1539.350890583,1540.594265458,0,1.62384812499999
124,32,2,categorization,0,kitchen,SHINEd_sun_aexklacwqwezaorf.tif,84,0.0666666666666667,0.0666666666666667,1.55,1540.611984875,1541.891216125,13,1540.680545875,1540.744137375,1541.919996041,1543.463387916,0,1.27923125000007
124,33,2,categorization,0,kitchen,SHINEd_sun_aarfiyshqohlwkmo.tif,67,0.0666666666666667,0.0666666666666667,1.61666666666667,1543.481521791,1544.676269791,9,1543.548990125,1543.614279,1544.7045635,1546.314620708,1,1.19474800000012
124,34,2,categorization,0,bathroom,SHINEd_sun_apmqjbnwghzuhhzh.tif,46,0.0666666666666667,0.0666666666666667,1.33333333333333,1546.333732375,1549.0415775,13,1546.40103475,1546.466491875,1549.052225,1550.37893475,1,2.70784512499995
124,35,2,categorization,0,kitchen,SHINEd_sun_adgqasybjyktddhj.tif,78,0.0666666666666667,0.0666666666666667,0.833333333333333,1550.39324425,1552.369285708,13,1550.461364916,1550.525315125,1552.37777425,1553.204446666,0,1.97604145800005
124,36,2,categorization,0,kitchen,SHINEd_sun_ahpczsiumwwocjkv.tif,92,0.0666666666666667,0.0666666666666667,1.45,1553.209499875,1554.31348275,9,1553.27132525,1553.332328791,1554.31763375,1555.761019041,1,1.10398287500016
124,37,2,categorization,0,kitchen,SHINEd_labelme_kxvouciolcpqplr.tif,62,0.0666666666666667,0.0666666666666667,0.933333333333333,1555.778721875,1556.827574458,13,1555.8472425,1555.911294916,1556.851180291,1557.777852,0,1.0488525830001
124,38,2,categorization,0,kitchen,SHINEd_sun_auticobqsbwgoppi.tif,104,0.0666666666666667,0.0666666666666667,1.65,1557.784181541,1558.705462166,9,1557.845963208,1557.906638875,1558.708779416,1560.352152583,1,0.921280625000009
124,39,2,categorization,0,bathroom,SHINEd_sun_awnqiikzaispgmwo.tif,56,0.0666666666666667,0.0666666666666667,1.23333333333333,1560.370287583,1561.553654166,13,1560.437259458,1560.502704666,1561.575488916,1562.802198125,1,1.18336658299995
124,40,2,categorization,0,kitchen,SHINEd_sun_amjjdeyrggfqgmom.tif,100,0.0666666666666667,0.0666666666666667,0.766666666666667,1562.814501,1563.853618,9,1562.88341075,1562.942808833,1563.88404,1564.644048583,1,1.03911700000003
124,41,2,categorization,0,bathroom,SHINEd_sun_ajlawzvmubibwbpy.tif,30,0.0666666666666667,0.0666666666666667,1.78333333333333,1564.650749125,1565.448926083,13,1564.712510666,1564.773395916,1565.458630166,1567.235355208,1,0.798176958000113
124,42,2,categorization,0,bathroom,SHINEd_sun_aspsyogrekjtfozg.tif,50,0.0666666666666667,0.0666666666666667,1.11666666666667,1567.25512575,1568.188140791,13,1567.322490083,1567.388631375,1568.212609083,1569.322671291,1,0.93301504100009
124,43,2,categorization,0,bathroom,SHINEd_sun_anhioqovhscjqqwb.tif,38,0.0666666666666667,0.0666666666666667,1.85,1569.334736541,1570.033024291,13,1569.399567416,1569.46697625,1570.057708208,1571.901095375,1,0.698287749999963
124,44,2,categorization,0,kitchen,SHINEd_sun_aehawpgmrlhlvcow.tif,81,0.0666666666666667,0.0666666666666667,0.733333333333333,1571.919720375,1573.424740208,9,1571.986349666,1572.052769708,1573.439082375,1574.16575625,1,1.50501983300001
124,45,2,categorization,0,bathroom,SHINEd_sun_anryaplzeujmzfkd.tif,39,0.0666666666666667,0.0666666666666667,0.783333333333333,1574.171260375,1576.065077666,13,1574.232988583,1574.293917083,1576.079732666,1576.856403333,1,1.893817291
124,46,2,categorization,0,kitchen,SHINEd_sun_ajkqhtgcbgpcwrwn.tif,97,0.0666666666666667,0.0666666666666667,1.5,1576.861380708,1577.873325791,13,1576.9231515,1576.983970208,1577.886189166,1579.37956025,0,1.011945083
124,47,2,categorization,0,kitchen,SHINEd_sun_aggjlwcdjsjcaemh.tif,86,0.0666666666666667,0.0666666666666667,0.733333333333333,1579.398440875,1581.20883125,9,1579.465143125,1579.530738333,1581.216535708,1581.943207416,1,1.810390375
124,48,2,categorization,0,bathroom,SHINEd_sun_agrwbmhcpmfuwmsg.tif,24,0.0666666666666667,0.0666666666666667,1.1,1581.948868166,1582.832778,13,1582.010688416,1582.071969875,1582.840344833,1583.933719875,1,0.883909833999951
124,49,2,categorization,0,kitchen,SHINEd_sun_agorklincwxrdtga.tif,87,0.0666666666666667,0.0666666666666667,1.6,1583.944491375,1585.100305791,9,1584.009536708,1584.076725583,1585.114324375,1586.707702833,1,1.15581441599988
124,50,2,categorization,0,bathroom,SHINEd_sun_aofnryafpsjimzsb.tif,40,0.0666666666666667,0.0666666666666667,1.06666666666667,1586.726955083,1588.185850416,13,1586.792079458,1586.859382208,1588.195312291,1589.255361458,1,1.4588953330001
124,1,3,categorization,0,kitchen,SHINEd_sun_acwjdupvyjsugpay.tif,76,0.0666666666666667,0.0666666666666667,0.85,1598.630426458,1601.144896375,9,1598.693073583,1598.753010541,1601.155315375,1601.998654208,1,2.51446991699981
124,2,3,categorization,0,bathroom,SHINEd_sun_avhrdrntsqrjzccq.tif,55,0.0666666666666667,0.0666666666666667,1.65,1602.004245708,1604.024611541,9,1602.065952083,1602.1268465,1604.0294365,1605.672805291,0,2.02036583299991
124,3,3,categorization,0,bathroom,SHINEd_sun_auzqhkafidnkrwmo.tif,54,0.0666666666666667,0.0666666666666667,0.783333333333333,1605.68956075,1606.6837615,13,1605.756157291,1605.822793,1606.71337425,1607.490046375,1,0.994200749999891
124,4,3,categorization,0,kitchen,SHINEd_sun_aehawpgmrlhlvcow.tif,81,0.0666666666666667,0.0666666666666667,0.933333333333333,1607.495073875,1608.505130166,13,1607.556862375,1607.617681291,1608.519639708,1609.446311125,0,1.01005629100018
124,5,3,categorization,0,kitchen,SHINEd_sun_acgtpgfybqjmzeyw.tif,75,0.0666666666666667,0.0666666666666667,0.866666666666667,1609.45201075,1610.401415875,13,1609.513795791,1609.574606041,1610.409830916,1611.2698375,0,0.949405125000112
124,6,3,categorization,0,kitchen,SHINEd_sun_abdenxonkemggwsq.tif,69,0.0666666666666667,0.0666666666666667,1.11666666666667,1611.275579583,1613.137482458,13,1611.337188791,1611.398292166,1613.15064675,1614.260708708,0,1.86190287499994
124,7,3,categorization,0,kitchen,SHINEd_sun_ahpczsiumwwocjkv.tif,92,0.0666666666666667,0.0666666666666667,0.966666666666667,1614.270035,1618.932225416,13,1614.335048875,1614.402376416,1618.954812083,1619.914819291,0,4.66219041599993
124,8,3,categorization,0,kitchen,SHINEd_sun_agzzivivdpnawacl.tif,89,0.0666666666666667,0.0666666666666667,1.78333333333333,1619.920184125,1622.440968291,13,1619.98201875,1620.0428925,1622.445806,1624.222533375,0,2.52078416599988
124,9,3,categorization,0,bathroom,SHINEd_sun_abjtwfukuwddzted.tif,15,0.0666666666666667,0.0666666666666667,1.55,1624.240317208,1625.524201708,9,1624.307131,1624.372897125,1625.544546375,1627.08792275,0,1.28388449999989
124,10,3,categorization,0,kitchen,SHINEd_sun_abpwyqmlzafvklqo.tif,72,0.0666666666666667,0.0666666666666667,1.41666666666667,1627.106925625,1628.122492708,9,1627.173723458,1627.238941375,1628.145646166,1629.55570725,1,1.01556708299995
124,11,3,categorization,0,kitchen,SHINEd_sun_aaxxjlsuzvqlgylf.tif,68,0.0666666666666667,0.0666666666666667,0.8,1629.573612333,1630.397654916,9,1629.640489083,1629.706305375,1630.412390666,1631.205738666,1,0.824042582999937
124,12,3,categorization,0,bathroom,SHINEd_sun_abapwbhyhkfixyex.tif,14,0.0666666666666667,0.0666666666666667,1.28333333333333,1631.212322916,1632.088478,9,1631.274657,1631.3350855,1632.103617291,1633.380340833,0,0.876155083999947
124,13,3,categorization,0,bathroom,SHINEd_sun_alotolagknyrgtsk.tif,35,0.0666666666666667,0.0666666666666667,1.66666666666667,1633.398721791,1634.995238333,13,1633.465150958,1633.531340833,1635.025499083,1636.685556166,1,1.59651654200002
124,14,3,categorization,0,kitchen,SHINEd_sun_akchetnepxlcxhsu.tif,98,0.0666666666666667,0.0666666666666667,1.81666666666667,1636.704096791,1637.915816375,13,1636.769169291,1636.835965083,1637.942669083,1639.752706416,0,1.21171958400009
124,15,3,categorization,0,kitchen,SHINEd_sun_aypmqwcualkenuoe.tif,109,0.0666666666666667,0.0666666666666667,1.35,1639.770800208,1640.930248208,9,1639.838032041,1639.903876958,1640.942031791,1642.285427375,1,1.15944799999988
124,16,3,categorization,0,kitchen,SHINEd_sun_aqeaevwwwjoqhzvl.tif,101,0.0666666666666667,0.0666666666666667,0.916666666666667,1642.304610458,1643.437128125,13,1642.371920583,1642.437646125,1643.461892333,1644.371897541,0,1.132517667
124,17,3,categorization,0,bathroom,SHINEd_sun_anryaplzeujmzfkd.tif,39,0.0666666666666667,0.0666666666666667,0.916666666666667,1644.377678833,1646.2892415,13,1644.439488583,1644.500198958,1646.302470416,1647.212476416,1,1.911562667
124,18,3,categorization,0,kitchen,SHINEd_sun_afuyedyxivkhecmu.tif,85,0.0666666666666667,0.0666666666666667,1.31666666666667,1647.218165041,1648.505150541,9,1647.280020833,1647.340745875,1648.510270416,1649.820319458,1,1.2869854999999
124,19,3,categorization,0,kitchen,SHINEd_sun_abrcnpqqhmjwekyf.tif,73,0.0666666666666667,0.0666666666666667,1.45,1649.835682791,1651.510458291,13,1649.902515375,1649.968296208,1651.526882916,1652.970245416,0,1.67477550000012
124,20,3,categorization,0,bathroom,SHINEd_sun_awnqiikzaispgmwo.tif,56,0.0666666666666667,0.0666666666666667,0.95,1652.982101458,1653.738440958,13,1653.048746541,1653.114895291,1653.7539715,1654.697309833,1,0.756339499999967
124,21,3,categorization,0,kitchen,SHINEd_sun_aggjlwcdjsjcaemh.tif,86,0.0666666666666667,0.0666666666666667,1.38333333333333,1654.703056,1656.081160541,9,1654.764752208,1654.825722541,1656.094796916,1657.47151925,1,1.37810454099986
124,22,3,categorization,0,kitchen,SHINEd_sun_agubuxuukhzyzpdp.tif,88,0.0666666666666667,0.0666666666666667,1.16666666666667,1657.49060525,1659.160674708,13,1657.557595333,1657.6236865,1659.176986041,1660.337031458,0,1.67006945799994
124,23,3,categorization,0,bathroom,SHINEd_sun_aoybiabnpadelefl.tif,41,0.0666666666666667,0.0666666666666667,1.61666666666667,1660.347102625,1661.573662625,9,1660.413408458,1660.480523875,1661.605528958,1663.215571541,0,1.22656000000006
124,24,3,categorization,0,bathroom,SHINEd_sun_afcoljnjfoxjtgja.tif,20,0.0666666666666667,0.0666666666666667,1.38333333333333,1663.231535583,1664.122694583,9,1663.298179916,1663.36395425,1664.136252208,1665.512978791,0,0.891159000000016
124,25,3,categorization,0,bathroom,SHINEd_sun_aclfzgynxzxlbepz.tif,19,0.0666666666666667,0.0666666666666667,1.78333333333333,1665.530772791,1666.880538625,13,1665.597439583,1665.662897833,1666.905639791,1668.682349666,1,1.34976583400021
124,26,3,categorization,0,bathroom,SHINEd_sun_aofnryafpsjimzsb.tif,40,0.0666666666666667,0.0666666666666667,0.783333333333333,1668.7035145,1671.320425375,13,1668.768751875,1668.834663625,1671.337483583,1672.114155166,1,2.61691087500003
124,27,3,categorization,0,bathroom,SHINEd_sun_ahcvzmoyaycdoftf.tif,27,0.0666666666666667,0.0666666666666667,1.65,1672.1199925,1673.064902625,13,1672.18196725,1672.242634416,1673.077668958,1674.721038708,1,0.944910124999979
124,28,3,categorization,0,kitchen,SHINEd_sun_abdxkyyxwfskuaqb.tif,70,0.0666666666666667,0.0666666666666667,1.86666666666667,1674.738890541,1675.601921458,9,1674.804228166,1674.87090975,1675.627941958,1677.487975541,1,0.86303091700006
124,29,3,categorization,0,kitchen,SHINEd_sun_axyyrmzcupyhlivc.tif,107,0.0666666666666667,0.0666666666666667,1.23333333333333,1677.506575,1678.460682,9,1677.573966541,1677.639096875,1678.479202083,1679.705912291,1,0.954106999999794
124,30,3,categorization,0,bathroom,SHINEd_sun_apkruvsevgegsdwp.tif,44,0.0666666666666667,0.0666666666666667,0.7,1679.724029333,1680.487892958,13,1679.79100225,1679.856764958,1680.513904791,1681.207286541,1,0.763863624999885
124,31,3,categorization,0,kitchen,SHINEd_sun_aymvwlarqodbwuoc.tif,108,0.0666666666666667,0.0666666666666667,0.716666666666667,1681.224496833,1683.352289958,13,1681.291701291,1681.356714583,1683.359096958,1684.069102833,0,2.12779312499993
124,32,3,categorization,0,bathroom,SHINEd_sun_asfwthctfqerjvxr.tif,49,0.0666666666666667,0.0666666666666667,1.05,1684.07462425,1685.056573083,13,1684.136477458,1684.197165583,1685.065614166,1686.109000708,1,0.98194883300016
124,33,3,categorization,0,bathroom,SHINEd_sun_acgyywnybuveqsro.tif,18,0.0666666666666667,0.0666666666666667,1.1,1686.121965875,1687.01600775,13,1686.186780333,1686.251641458,1687.041458958,1688.134850083,1,0.894041875000084
124,34,3,categorization,0,bathroom,SHINEd_sun_acegryoqftbzowsg.tif,17,0.0666666666666667,0.0666666666666667,1.13333333333333,1688.152683208,1688.912589416,9,1688.219647875,1688.285351083,1688.9230825,1690.049796083,0,0.759906207999848
124,35,3,categorization,0,bathroom,SHINEd_sun_aavhrsfjbserjtht.tif,13,0.0666666666666667,0.0666666666666667,1.38333333333333,1690.066047875,1690.92080225,9,1690.12850475,1690.188692541,1690.923801125,1692.300512958,0,0.854754374999857
124,36,3,categorization,0,bathroom,SHINEd_sun_apjevzvycyhuqghb.tif,43,0.0666666666666667,0.0666666666666667,1.5,1692.318743375,1693.269196958,9,1692.385347291,1692.451118333,1693.291183916,1694.784552208,0,0.950453583000126
124,37,3,categorization,0,kitchen,SHINEd_sun_aegoxogugdkwpmpj.tif,80,0.0666666666666667,0.0666666666666667,1.61666666666667,1694.795236708,1696.104521666,9,1694.861513916,1694.923263166,1696.132960041,1697.743017166,1,1.30928495800003
124,38,3,categorization,0,kitchen,SHINEd_sun_avszsnwsbuqfgzbn.tif,105,0.0666666666666667,0.0666666666666667,0.983333333333333,1697.761483458,1698.714162875,13,1697.828842791,1697.893758791,1698.732307791,1699.708979833,0,0.952679417000127
124,39,3,categorization,0,kitchen,SHINEd_sun_ahspylgoovwmwvgk.tif,93,0.0666666666666667,0.0666666666666667,1.3,1699.714920458,1700.696519333,13,1699.776777416,1699.837544708,1700.706187625,1701.999556,0,0.981598874999918
124,40,3,categorization,0,kitchen,SHINEd_sun_aarfiyshqohlwkmo.tif,67,0.0666666666666667,0.0666666666666667,1.03333333333333,1702.020813333,1703.038233333,9,1702.088109958,1702.1532775,1703.058767458,1704.085439916,1,1.01742000000013
124,41,3,categorization,0,bathroom,SHINEd_sun_axyrejkiiaqiurjk.tif,59,0.0666666666666667,0.0666666666666667,1.45,1704.091530041,1705.440619666,13,1704.153334416,1704.21422325,1705.449991541,1706.893380875,1,1.34908962500003
124,42,3,categorization,0,kitchen,SHINEd_sun_acfmftudsenhrfhy.tif,74,0.0666666666666667,0.0666666666666667,1.23333333333333,1706.906165958,1707.729743416,9,1706.970802708,1707.038784416,1707.743609416,1708.970334291,1,0.823577458000045
124,43,3,categorization,0,kitchen,SHINEd_sun_ahdycvpopffkzzsu.tif,90,0.0666666666666667,0.0666666666666667,1.26666666666667,1708.980633708,1709.8170095,9,1709.047334958,1709.112956375,1709.836512916,1711.096573333,1,0.836375792000126
124,44,3,categorization,0,kitchen,SHINEd_sun_amjjdeyrggfqgmom.tif,100,0.0666666666666667,0.0666666666666667,1.03333333333333,1711.115432208,1711.86530775,9,1711.183282458,1711.248168958,1711.888284458,1712.914974416,1,0.749875542000154
124,45,3,categorization,0,kitchen,SHINEd_sun_ahljzhgcdpomplvg.tif,91,0.0666666666666667,0.0666666666666667,1.31666666666667,1712.924967625,1714.5847945,9,1712.990349916,1713.04944975,1714.602192041,1715.912244541,1,1.65982687500014
124,46,3,categorization,0,bathroom,SHINEd_sun_ahijqszoswveeyji.tif,28,0.0666666666666667,0.0666666666666667,1.7,1715.929775166,1718.048715125,13,1715.997928958,1716.062418166,1718.065408833,1719.7587765,1,2.11893995900004
124,47,3,categorization,0,bathroom,SHINEd_sun_aleqenyvunhactkl.tif,32,0.0666666666666667,0.0666666666666667,1.35,1719.776817375,1720.96187325,13,1719.843991791,1719.909017041,1720.980912791,1722.32428175,1,1.18505587499999
124,48,3,categorization,0,kitchen,SHINEd_sun_aexklacwqwezaorf.tif,84,0.0666666666666667,0.0666666666666667,0.8,1722.341442375,1724.272960333,13,1722.408591708,1722.473875208,1724.293440708,1725.08677925,0,1.93151795799986
124,49,3,categorization,0,kitchen,SHINEd_labelme_brsyyvweiuaazfr.tif,61,0.0666666666666667,0.0666666666666667,0.766666666666667,1725.092284041,1725.95221475,9,1725.1540305,1725.214993375,1725.967188541,1726.727194958,1,0.859930708999855
124,50,3,categorization,0,kitchen,SHINEd_sun_aunzlwrbjumxhwdj.tif,103,0.0666666666666667,0.0666666666666667,1.38333333333333,1726.733654666,1727.448503416,9,1726.795345583,1726.856183083,1727.458022416,1728.8347295,1,0.714848750000101
124,1,4,categorization,0,bathroom,SHINEd_sun_apynckhmoftszqoq.tif,47,0.0666666666666667,0.0666666666666667,1,1744.196307416,1747.088178875,9,1744.258839875,1744.318916333,1747.104539833,1748.097881625,0,2.89187145899996
124,2,4,categorization,0,bathroom,SHINEd_sun_agguqiubmwhqqunb.tif,22,0.0666666666666667,0.0666666666666667,0.966666666666667,1748.103654583,1749.080823625,13,1748.165311,1748.226205958,1749.094986541,1750.054992416,1,0.977169042000014
124,3,4,categorization,0,bathroom,SHINEd_labelme_sfxiulhjbhlyiyt.tif,11,0.0666666666666667,0.0666666666666667,1.75,1750.060713,1750.751968166,13,1750.122555416,1750.183079541,1750.768127541,1752.511501041,1,0.691255166000019
124,4,4,categorization,0,bathroom,SHINEd_sun_axxbkopsgyouuebh.tif,58,0.0666666666666667,0.0666666666666667,1.68333333333333,1752.5303095,1753.371365416,13,1752.596955833,1752.661453541,1753.401635166,1755.078350291,1,0.841055915999959
124,5,4,categorization,0,kitchen,SHINEd_sun_aapllqyqlykszopd.tif,66,0.0666666666666667,0.0666666666666667,1.58333333333333,1755.096611666,1756.016060958,13,1755.163370791,1755.228668416,1756.034838083,1757.611560708,0,0.919449292000081
124,6,4,categorization,0,kitchen,SHINEd_sun_ajkqhtgcbgpcwrwn.tif,97,0.0666666666666667,0.0666666666666667,1,1757.629778833,1758.351850291,9,1757.696608791,1757.76180275,1758.367743708,1759.361082375,1,0.722071457999846
124,7,4,categorization,0,bathroom,SHINEd_sun_amzlamotzwfkwjco.tif,37,0.0666666666666667,0.0666666666666667,1.33333333333333,1759.3671295,1760.272272541,9,1759.428934166,1759.489734958,1760.292326333,1761.619035833,0,0.905143040999974
124,8,4,categorization,0,bathroom,SHINEd_sun_aapitsgbtktqubfy.tif,12,0.0666666666666667,0.0666666666666667,1.26666666666667,1761.63608375,1762.675197291,13,1761.702961458,1761.768191083,1762.68971675,1763.95015075,1,1.03911354100001
124,9,4,categorization,0,bathroom,SHINEd_sun_akiytfaagpdsphgz.tif,31,0.0666666666666667,0.0666666666666667,0.883333333333333,1763.962965583,1764.786035583,13,1764.029880708,1764.096368333,1764.801643,1765.67835325,1,0.823070000000143
124,10,4,categorization,0,kitchen,SHINEd_sun_acxkpeoqbwcxfvip.tif,77,0.0666666666666667,0.0666666666666667,1.26666666666667,1765.695353375,1766.799828333,9,1765.762273541,1765.8219905,1766.807191458,1768.067241916,1,1.10447495800008
124,11,4,categorization,0,bathroom,SHINEd_sun_aggnnqpdorgxpvce.tif,21,0.0666666666666667,0.0666666666666667,2,1768.086991333,1768.968814,9,1768.1537585,1768.219196458,1768.991378666,1770.984774833,0,0.881822667000051
124,12,4,categorization,0,kitchen,SHINEd_sun_aixorpehvfykdynp.tif,95,0.0666666666666667,0.0666666666666667,0.733333333333333,1770.996226875,1772.89643675,9,1771.063165083,1771.128665666,1772.914189166,1773.64086275,1,1.90020987499997
124,13,4,categorization,0,kitchen,SHINEd_sun_ajcbwwvdlsvjyzje.tif,96,0.0666666666666667,0.0666666666666667,0.883333333333333,1773.6464855,1774.816763458,9,1773.708333666,1773.769163708,1774.82103025,1775.697702208,1,1.17027795800004
124,14,4,categorization,0,bathroom,SHINEd_sun_ausgutylgojavyoq.tif,53,0.0666666666666667,0.0666666666666667,0.983333333333333,1775.7023545,1776.448603458,13,1775.764241791,1775.824930666,1776.460248458,1777.436921458,1,0.746248958000024
124,15,4,categorization,0,kitchen,SHINEd_sun_ahywdevtimnqcsln.tif,94,0.0666666666666667,0.0666666666666667,1.56666666666667,1777.442813125,1778.296715208,9,1777.504407416,1777.565435375,1778.300585,1779.860629708,1,0.853902083000094
124,16,4,categorization,0,bathroom,SHINEd_sun_agrwbmhcpmfuwmsg.tif,24,0.0666666666666667,0.0666666666666667,1.08333333333333,1779.878506458,1780.601929583,13,1779.945161958,1780.010836958,1780.616672833,1781.69338375,1,0.723423124999954
124,17,4,categorization,0,bathroom,SHINEd_sun_aljolscmmzydegqp.tif,33,0.0666666666666667,0.0666666666666667,0.75,1781.70554975,1782.608610708,13,1781.770597958,1781.83677725,1782.626274125,1783.369667166,1,0.903060957999969
124,18,4,categorization,0,kitchen,SHINEd_sun_aadbddgrdsjugojn.tif,64,0.0666666666666667,0.0666666666666667,0.966666666666667,1783.38598175,1784.09672975,13,1783.452756875,1783.51861875,1784.104225083,1785.06422925,0,0.710747999999967
124,19,4,categorization,0,kitchen,SHINEd_sun_auticobqsbwgoppi.tif,104,0.0666666666666667,0.0666666666666667,1.63333333333333,1785.069657,1786.544558833,9,1785.131788916,1785.192311125,1786.561227958,1788.187942416,1,1.4749018330001
124,20,4,categorization,0,kitchen,SHINEd_labelme_kxvouciolcpqplr.tif,62,0.0666666666666667,0.0666666666666667,1.46666666666667,1788.202159875,1789.239785458,13,1788.268537625,1788.335086875,1789.258305,1790.718344625,0,1.03762558299991
124,21,4,categorization,0,bathroom,SHINEd_sun_acduarbnmmoglmiv.tif,16,0.0666666666666667,0.0666666666666667,0.933333333333333,1790.735589375,1791.820412083,13,1790.800448875,1790.868073583,1791.840986,1792.767658416,1,1.08482270800005
124,22,4,categorization,0,kitchen,SHINEd_sun_awcpdzzznmweyyhv.tif,106,0.0666666666666667,0.0666666666666667,1.45,1792.773178208,1793.560677791,9,1792.83497625,1792.895786583,1793.564221166,1795.007599583,1,0.787499582999999
124,23,4,categorization,0,bathroom,SHINEd_sun_ambriybtogmepttm.tif,36,0.0666666666666667,0.0666666666666667,0.966666666666667,1795.023212791,1795.887592583,13,1795.089849916,1795.1555335,1795.911870958,1796.871874666,1,0.864379791999909
124,24,4,categorization,0,bathroom,SHINEd_sun_ajlawzvmubibwbpy.tif,30,0.0666666666666667,0.0666666666666667,0.816666666666667,1796.876990583,1797.792372375,13,1796.938627333,1796.9995955,1797.801877333,1798.611882708,1,0.915381792000062
124,25,4,categorization,0,bathroom,SHINEd_sun_apeeialkgkuxddgh.tif,42,0.0666666666666667,0.0666666666666667,1.96666666666667,1798.617535583,1799.328188375,13,1798.679233791,1798.740233875,1799.342153458,1801.302212125,1,0.710652792000019
124,26,4,categorization,0,bathroom,SHINEd_sun_apkxzenqapsujocq.tif,45,0.0666666666666667,0.0666666666666667,0.916666666666667,1801.319319666,1802.3527765,13,1801.386144458,1801.451701833,1802.374987708,1803.28499525,1,1.03345683399994
124,27,4,categorization,0,bathroom,SHINEd_sun_azqyogdvyhahyram.tif,60,0.0666666666666667,0.0666666666666667,1.28333333333333,1803.290598083,1804.879958541,13,1803.352379416,1803.413195041,1804.898990083,1806.175721041,1,1.58936045799987
124,28,4,categorization,0,bathroom,SHINEd_sun_ahqjwnzgolcaoidx.tif,29,0.0666666666666667,0.0666666666666667,1.8,1806.194224125,1807.647576,9,1806.26103675,1806.326526833,1807.669350166,1809.46273025,0,1.45335187500018
124,29,4,categorization,0,kitchen,SHINEd_sun_agorklincwxrdtga.tif,87,0.0666666666666667,0.0666666666666667,1.33333333333333,1809.481244041,1810.24352725,9,1809.548616666,1809.613749666,1810.27017775,1811.596882708,1,0.762283208999861
124,30,4,categorization,0,bathroom,SHINEd_sun_ahaulkltgpkeeemi.tif,26,0.0666666666666667,0.0666666666666667,1.06666666666667,1811.615741416,1812.650239791,13,1811.682739625,1811.748211125,1812.672015583,1813.732052375,1,1.03449837500011
124,31,4,categorization,0,kitchen,SHINEd_sun_adgqasybjyktddhj.tif,78,0.0666666666666667,0.0666666666666667,1.03333333333333,1813.744944916,1814.524138916,9,1813.81012875,1813.874845041,1814.548341708,1815.575068333,1,0.779194000000189
124,32,4,categorization,0,kitchen,SHINEd_sun_akcjzhbbjlbogpdi.tif,99,0.0666666666666667,0.0666666666666667,0.733333333333333,1815.588785083,1816.336380791,9,1815.65574325,1815.721061791,1816.340156791,1817.066828458,1,0.747595708000063
124,33,4,categorization,0,kitchen,SHINEd_sun_aeqdocilnnpuvuhx.tif,83,0.0666666666666667,0.0666666666666667,0.766666666666667,1817.071790375,1817.816239,9,1817.133474333,1817.19446575,1817.829974333,1818.58997975,1,0.744448624999904
124,34,4,categorization,0,kitchen,SHINEd_sun_auaiucuqpdausiva.tif,102,0.0666666666666667,0.0666666666666667,1.1,1818.595496041,1819.327910125,9,1818.6571485,1818.718076916,1819.336586875,1820.429957833,1,0.732414084000084
124,35,4,categorization,0,bathroom,SHINEd_sun_axldvoqbuvuggfmq.tif,57,0.0666666666666667,0.0666666666666667,1.81666666666667,1820.439196458,1822.253606041,9,1820.504181333,1820.571163666,1822.281508375,1824.091553916,0,1.81440958300004
124,36,4,categorization,0,bathroom,SHINEd_sun_aspsyogrekjtfozg.tif,50,0.0666666666666667,0.0666666666666667,0.883333333333333,1824.109224333,1824.816834125,13,1824.176242291,1824.242325083,1824.830425333,1825.70709675,1,0.707609792000085
124,37,4,categorization,0,bathroom,SHINEd_sun_atstyziqcmkahyxk.tif,51,0.0666666666666667,0.0666666666666667,1.7,1825.712841708,1826.440643708,13,1825.774603875,1825.835526916,1826.454165375,1828.147544458,1,0.727801999999883
124,38,4,categorization,0,bathroom,SHINEd_sun_aqrpegblszgcoujh.tif,48,0.0666666666666667,0.0666666666666667,1.58333333333333,1828.168327458,1829.9920265,9,1828.235169291,1828.301215875,1830.003982875,1831.580703041,0,1.82369904200004
124,39,4,categorization,0,kitchen,SHINEd_sun_azmutvzbxypaceni.tif,110,0.0666666666666667,0.0666666666666667,0.833333333333333,1831.598876583,1832.746123333,13,1831.665879625,1831.733122875,1832.773487416,1833.600159541,0,1.14724675000002
124,40,4,categorization,0,bathroom,SHINEd_sun_aunuadmjocsddsrl.tif,52,0.0666666666666667,0.0666666666666667,0.95,1833.605806833,1835.080505875,13,1833.667578875,1833.728875791,1835.097726041,1836.041065708,1,1.47469904199988
124,41,4,categorization,0,bathroom,SHINEd_sun_alkosphxlxwjwgjd.tif,34,0.0666666666666667,0.0666666666666667,1.06666666666667,1836.04604375,1836.720614041,13,1836.1078555,1836.168690208,1836.737743291,1837.797783125,1,0.674570291000009
124,42,4,categorization,0,bathroom,SHINEd_sun_agyqfjcfkdcydepw.tif,25,0.0666666666666667,0.0666666666666667,1.68333333333333,1837.807378958,1838.581373333,9,1837.871767375,1837.937743041,1838.611091291,1840.28780225,0,0.773994375000029
124,43,4,categorization,0,kitchen,SHINEd_sun_admlmbcdswaszruo.tif,79,0.0666666666666667,0.0666666666666667,1.31666666666667,1840.306743166,1842.648190333,9,1840.3740405,1840.439017708,1842.658428291,1843.968478666,1,2.34144716700007
124,44,4,categorization,0,kitchen,SHINEd_sun_aamedkxepzlwuxes.tif,65,0.0666666666666667,0.0666666666666667,1.61666666666667,1843.987446125,1845.156634666,9,1844.054362916,1844.119704875,1845.176571333,1846.786594416,1,1.16918854100004
124,45,4,categorization,0,bathroom,SHINEd_sun_anhioqovhscjqqwb.tif,38,0.0666666666666667,0.0666666666666667,1.15,1846.79646175,1847.428036708,13,1846.863891083,1846.923658458,1847.446687666,1848.59007825,1,0.631574958000101
124,46,4,categorization,0,kitchen,SHINEd_labelme_rykdqxenmhulbdn.tif,63,0.0666666666666667,0.0666666666666667,1.25,1848.601660875,1849.608619375,9,1848.668327333,1848.734077416,1849.623337458,1850.866714208,1,1.00695849999988
124,47,4,categorization,0,kitchen,SHINEd_sun_aenotlpyftoioydp.tif,82,0.0666666666666667,0.0666666666666667,1.1,1850.880856833,1851.7061295,9,1850.944644375,1851.011305541,1851.733561625,1852.826957041,1,0.825272667000036
124,48,4,categorization,0,bathroom,SHINEd_sun_aghyqhbptboemmoq.tif,23,0.0666666666666667,0.0666666666666667,0.9,1852.838462375,1853.609110833,13,1852.903318916,1852.969031875,1853.625057041,1854.518437833,1,0.770648457999869
124,49,4,categorization,0,bathroom,SHINEd_sun_apmqjbnwghzuhhzh.tif,46,0.0666666666666667,0.0666666666666667,1.3,1854.534202958,1855.263749041,13,1854.601262875,1854.6665935,1855.268464666,1856.561838458,1,0.729546083000059
124,50,4,categorization,0,kitchen,SHINEd_sun_abftihopvusyfakt.tif,71,0.0666666666666667,0.0666666666666667,1.25,1856.580503958,1857.2908805,9,1856.646720541,1856.712592958,1857.318779291,1858.562171875,1,0.710376541999949
124,1,5,categorization,0,bathroom,SHINEd_sun_aqrpegblszgcoujh.tif,48,0.0666666666666667,0.0666666666666667,1.7,1866.854740291,1868.623737041,9,1866.916626333,1866.977516083,1868.630023708,1870.323415291,0,1.76899674999981
124,2,5,categorization,0,kitchen,SHINEd_sun_aadbddgrdsjugojn.tif,64,0.0666666666666667,0.0666666666666667,1.81666666666667,1870.341834333,1871.33802775,9,1870.408560333,1870.474720083,1871.364850875,1873.174911833,1,0.996193417000086
124,3,5,categorization,0,kitchen,SHINEd_labelme_rykdqxenmhulbdn.tif,63,0.0666666666666667,0.0666666666666667,1.23333333333333,1873.190764125,1874.088417416,9,1873.257857916,1873.323124291,1874.113186291,1875.339913708,1,0.897653291000097
124,4,5,categorization,0,kitchen,SHINEd_sun_aegoxogugdkwpmpj.tif,80,0.0666666666666667,0.0666666666666667,1.4,1875.356122041,1876.151703833,9,1875.422969541,1875.488625375,1876.179056708,1877.572428041,1,0.795581792000121
124,5,5,categorization,0,bathroom,SHINEd_sun_apkruvsevgegsdwp.tif,44,0.0666666666666667,0.0666666666666667,1.03333333333333,1877.591153,1878.257917125,13,1877.658504333,1877.723737208,1878.279852,1879.306569708,1,0.666764124999872
124,6,5,categorization,0,kitchen,SHINEd_sun_acgtpgfybqjmzeyw.tif,75,0.0666666666666667,0.0666666666666667,1.38333333333333,1879.316360375,1881.135182791,9,1879.381917166,1879.449208083,1881.158370958,1882.535081375,1,1.8188224160001
124,7,5,categorization,0,kitchen,SHINEd_sun_aypmqwcualkenuoe.tif,109,0.0666666666666667,0.0666666666666667,2,1882.551748583,1883.357548916,9,1882.618379333,1882.683905958,1883.373433166,1885.366827666,1,0.805800332999979
124,8,5,categorization,0,kitchen,SHINEd_sun_acwjdupvyjsugpay.tif,76,0.0666666666666667,0.0666666666666667,1.85,1885.385689,1886.415259416,13,1885.452918791,1885.518201083,1886.440542833,1888.283919583,0,1.02957041600007
124,9,5,categorization,0,kitchen,SHINEd_sun_abdxkyyxwfskuaqb.tif,70,0.0666666666666667,0.0666666666666667,0.816666666666667,1888.30134825,1889.453283,9,1888.368193458,1888.434285708,1889.472320166,1890.282326833,1,1.15193475000001
124,10,5,categorization,0,kitchen,SHINEd_sun_abpwyqmlzafvklqo.tif,72,0.0666666666666667,0.0666666666666667,1.85,1890.288080291,1891.055559416,9,1890.350022375,1890.411182583,1891.062964,1892.906334083,1,0.767479125000136
124,11,5,categorization,0,kitchen,SHINEd_sun_aehawpgmrlhlvcow.tif,81,0.0666666666666667,0.0666666666666667,0.733333333333333,1892.916535875,1893.843000875,9,1892.981796666,1893.048960916,1893.872248875,1894.598921083,1,0.926465000000007
124,12,5,categorization,0,kitchen,SHINEd_sun_ajkqhtgcbgpcwrwn.tif,97,0.0666666666666667,0.0666666666666667,0.716666666666667,1894.605043541,1895.679994833,9,1894.6668435,1894.727647958,1895.6961065,1896.406111333,1,1.07495129199992
124,13,5,categorization,0,kitchen,SHINEd_sun_agorklincwxrdtga.tif,87,0.0666666666666667,0.0666666666666667,0.833333333333333,1896.41183825,1897.079992125,9,1896.473572333,1896.534434916,1897.086252833,1897.912925333,1,0.668153874999916
124,14,5,categorization,0,bathroom,SHINEd_sun_aapitsgbtktqubfy.tif,12,0.0666666666666667,0.0666666666666667,0.95,1897.917826666,1898.751724125,13,1897.979612916,1898.040409583,1898.758887416,1899.70222575,1,0.8338974589999
124,15,5,categorization,0,kitchen,SHINEd_sun_agubuxuukhzyzpdp.tif,88,0.0666666666666667,0.0666666666666667,1.96666666666667,1899.708035333,1900.471788125,9,1899.769950875,1899.830647958,1900.482876208,1902.442927625,1,0.763752792000105
124,16,5,categorization,0,bathroom,SHINEd_sun_apjevzvycyhuqghb.tif,43,0.0666666666666667,0.0666666666666667,1.86666666666667,1902.460643458,1903.565130666,9,1902.527522416,1902.5934385,1903.580876416,1905.440921625,0,1.10448720799991
124,17,5,categorization,0,kitchen,SHINEd_sun_aeqdocilnnpuvuhx.tif,83,0.0666666666666667,0.0666666666666667,1.51666666666667,1905.458991458,1906.31270425,9,1905.525793583,1905.591359083,1906.332186958,1907.842231666,1,0.853712792000124
124,18,5,categorization,0,bathroom,SHINEd_sun_agyqfjcfkdcydepw.tif,25,0.0666666666666667,0.0666666666666667,1.3,1907.859919208,1908.596150791,9,1907.926995833,1907.992562916,1908.614501291,1909.90787125,0,0.736231582999835
124,19,5,categorization,0,bathroom,SHINEd_sun_asfwthctfqerjvxr.tif,49,0.0666666666666667,0.0666666666666667,1.91666666666667,1909.925534666,1911.536504916,13,1909.992345833,1910.058325208,1911.565159916,1913.475203708,1,1.61097025000004
124,20,5,categorization,0,kitchen,SHINEd_sun_aapllqyqlykszopd.tif,66,0.0666666666666667,0.0666666666666667,1.23333333333333,1913.492946166,1914.563646875,9,1913.559923125,1913.62537425,1914.58128975,1915.808015916,1,1.07070070899999
124,21,5,categorization,0,bathroom,SHINEd_sun_apeeialkgkuxddgh.tif,42,0.0666666666666667,0.0666666666666667,0.866666666666667,1915.825829208,1916.400993875,13,1915.892777541,1915.958360583,1916.414368166,1917.274403458,1,0.575164667000081
124,22,5,categorization,0,bathroom,SHINEd_sun_ahijqszoswveeyji.tif,28,0.0666666666666667,0.0666666666666667,0.8,1917.291977416,1918.111584833,9,1917.359304875,1917.4243845,1918.12681875,1918.920159166,0,0.819607417000043
124,23,5,categorization,0,kitchen,SHINEd_sun_ahljzhgcdpomplvg.tif,91,0.0666666666666667,0.0666666666666667,1.51666666666667,1918.925174916,1919.855746916,9,1918.986808333,1919.047748291,1919.866213708,1921.376265208,1,0.930571999999984
124,24,5,categorization,0,bathroom,SHINEd_labelme_sfxiulhjbhlyiyt.tif,11,0.0666666666666667,0.0666666666666667,1.18333333333333,1921.392878708,1922.079591916,13,1921.459609125,1921.525161416,1922.0978155,1923.274510291,1,0.686713208000128
124,25,5,categorization,0,bathroom,SHINEd_sun_avhrdrntsqrjzccq.tif,55,0.0666666666666667,0.0666666666666667,1.6,1923.286255416,1924.035161875,9,1923.353109958,1923.418527333,1924.058778041,1925.652164458,0,0.748906459000182
124,26,5,categorization,0,bathroom,SHINEd_sun_ausgutylgojavyoq.tif,53,0.0666666666666667,0.0666666666666667,1.56666666666667,1925.670057041,1926.28823625,13,1925.737018375,1925.798700791,1926.305101166,1927.865151625,1,0.618179208999891
124,27,5,categorization,0,bathroom,SHINEd_sun_awnqiikzaispgmwo.tif,56,0.0666666666666667,0.0666666666666667,1.36666666666667,1927.884692875,1928.884094625,13,1927.951633916,1928.017480041,1928.907829333,1930.267865875,1,0.999401750000061
124,28,5,categorization,0,bathroom,SHINEd_sun_agrwbmhcpmfuwmsg.tif,24,0.0666666666666667,0.0666666666666667,1.53333333333333,1930.285752791,1931.364370166,13,1930.352770833,1930.418322541,1931.391751083,1932.918456875,1,1.07861737500002
124,29,5,categorization,0,kitchen,SHINEd_sun_ahdycvpopffkzzsu.tif,90,0.0666666666666667,0.0666666666666667,1.4,1932.928805583,1934.4878935,13,1932.993745625,1933.061291166,1934.497473,1935.890852458,0,1.55908791699994
124,30,5,categorization,0,bathroom,SHINEd_sun_alkosphxlxwjwgjd.tif,34,0.0666666666666667,0.0666666666666667,1.06666666666667,1935.908229416,1936.720413416,13,1935.97583025,1936.040849625,1936.748149333,1937.808191,1,0.812183999999888
124,31,5,categorization,0,kitchen,SHINEd_sun_aymvwlarqodbwuoc.tif,108,0.0666666666666667,0.0666666666666667,1.63333333333333,1937.81938175,1938.587916208,9,1937.884695333,1937.95031875,1938.606568333,1940.233274708,1,0.768534457999976
124,32,5,categorization,0,bathroom,SHINEd_sun_akiytfaagpdsphgz.tif,31,0.0666666666666667,0.0666666666666667,1.8,1940.251334333,1941.002644666,13,1940.318380541,1940.383614708,1941.024128333,1942.817507708,1,0.751310332999992
124,33,5,categorization,0,kitchen,SHINEd_sun_ahywdevtimnqcsln.tif,94,0.0666666666666667,0.0666666666666667,1.53333333333333,1942.828234875,1943.66747725,9,1942.895231,1942.958182833,1943.698445416,1945.225154916,1,0.83924237500014
124,34,5,categorization,0,bathroom,SHINEd_sun_aunuadmjocsddsrl.tif,52,0.0666666666666667,0.0666666666666667,0.766666666666667,1945.243618916,1946.1172615,9,1945.310876875,1945.376043916,1946.131651875,1946.891656791,0,0.873642583999981
124,35,5,categorization,0,kitchen,SHINEd_sun_amjjdeyrggfqgmom.tif,100,0.0666666666666667,0.0666666666666667,1.86666666666667,1946.897311958,1947.615724625,9,1946.959027333,1947.019978375,1947.621738375,1949.481791916,1,0.718412666999939
124,36,5,categorization,0,kitchen,SHINEd_labelme_kxvouciolcpqplr.tif,62,0.0666666666666667,0.0666666666666667,1.13333333333333,1949.502913958,1950.590899416,9,1949.569804583,1949.635257083,1950.607690791,1951.734420583,1,1.08798545800005
124,37,5,categorization,0,kitchen,SHINEd_sun_aaxxjlsuzvqlgylf.tif,68,0.0666666666666667,0.0666666666666667,1.73333333333333,1951.744246791,1952.800130083,9,1951.809321541,1951.877791958,1952.816587916,1954.543301916,1,1.05588329200009
124,38,5,categorization,0,bathroom,SHINEd_sun_agguqiubmwhqqunb.tif,22,0.0666666666666667,0.0666666666666667,0.766666666666667,1954.560004333,1955.321903208,9,1954.627032041,1954.692085083,1955.34930925,1956.109315291,0,0.761898875000043
124,39,5,categorization,0,bathroom,SHINEd_sun_aleqenyvunhactkl.tif,32,0.0666666666666667,0.0666666666666667,1.85,1956.116239916,1956.77540975,13,1956.177985833,1956.238845125,1956.790687,1958.63406175,1,0.659169834000068
124,40,5,categorization,0,bathroom,SHINEd_sun_aclfzgynxzxlbepz.tif,19,0.0666666666666667,0.0666666666666667,0.966666666666667,1958.650912208,1959.561981541,13,1958.715985666,1958.778558041,1959.585632583,1960.545640541,1,0.911069333000114
124,41,5,categorization,0,kitchen,SHINEd_sun_acxkpeoqbwcxfvip.tif,77,0.0666666666666667,0.0666666666666667,1.06666666666667,1960.5514205,1961.247878208,9,1960.61313925,1960.674201458,1961.25945175,1962.319489916,1,0.696457708000025
124,42,5,categorization,0,kitchen,SHINEd_sun_ahspylgoovwmwvgk.tif,93,0.0666666666666667,0.0666666666666667,1.38333333333333,1962.329245333,1963.331207458,9,1962.394201625,1962.459102333,1963.348660833,1964.725374875,1,1.00196212500009
124,43,5,categorization,0,bathroom,SHINEd_sun_acegryoqftbzowsg.tif,17,0.0666666666666667,0.0666666666666667,0.766666666666667,1964.743004541,1965.556778791,9,1964.808119291,1964.875255625,1965.581958708,1966.342007541,0,0.813774250000051
124,44,5,categorization,0,bathroom,SHINEd_sun_abjtwfukuwddzted.tif,15,0.0666666666666667,0.0666666666666667,0.866666666666667,1966.358695166,1967.263724333,9,1966.424786833,1966.49086975,1967.276374625,1968.136380666,0,0.905029167000066
124,45,5,categorization,0,bathroom,SHINEd_sun_aljolscmmzydegqp.tif,33,0.0666666666666667,0.0666666666666667,1.25,1968.142189625,1968.935091708,9,1968.203809625,1968.264802833,1968.950041916,1970.193427875,0,0.792902083000172
124,46,5,categorization,0,kitchen,SHINEd_sun_aggjlwcdjsjcaemh.tif,86,0.0666666666666667,0.0666666666666667,1.03333333333333,1970.210547416,1971.120327583,13,1970.276904208,1970.342804166,1971.149327083,1972.176052166,0,0.909780167000008
124,47,5,categorization,0,bathroom,SHINEd_sun_ahqjwnzgolcaoidx.tif,29,0.0666666666666667,0.0666666666666667,0.783333333333333,1972.189910541,1973.143076666,9,1972.254569166,1972.321083125,1973.160211,1973.93692275,0,0.953166125000052
124,48,5,categorization,0,bathroom,SHINEd_sun_auzqhkafidnkrwmo.tif,54,0.0666666666666667,0.0666666666666667,0.7,1973.952963875,1974.751356583,13,1974.019651,1974.085341583,1974.770768,1975.464106416,1,0.798392707999938
124,49,5,categorization,0,bathroom,SHINEd_sun_acduarbnmmoglmiv.tif,16,0.0666666666666667,0.0666666666666667,1.75,1975.469891708,1976.223444916,9,1975.531669625,1975.592467875,1976.228108583,1977.971477916,0,0.753553208000085
124,50,5,categorization,0,bathroom,SHINEd_sun_axldvoqbuvuggfmq.tif,57,0.0666666666666667,0.0666666666666667,1.36666666666667,1977.988820583,1978.896584791,13,1978.055849583,1978.121447583,1978.909668125,1980.269726375,1,0.90776420799989
124,1,6,categorization,0,bathroom,SHINEd_sun_aavhrsfjbserjtht.tif,13,0.0666666666666667,0.0666666666666667,0.966666666666667,1987.401938583,1990.780391541,13,1987.464829416,1987.524525583,1990.796813833,1991.75682175,1,3.37845295800003
124,2,6,categorization,0,bathroom,SHINEd_sun_afcoljnjfoxjtgja.tif,20,0.0666666666666667,0.0666666666666667,1.73333333333333,1991.761780416,1993.6395035,13,1991.823545666,1991.884348291,1993.653464625,1995.380188083,1,1.87772308400008
124,3,6,categorization,0,bathroom,SHINEd_sun_alotolagknyrgtsk.tif,35,0.0666666666666667,0.0666666666666667,1.91666666666667,1995.402124708,1996.3047965,9,1995.46898175,1995.534663666,1996.325884291,1998.23593125,0,0.902671792000092
124,4,6,categorization,0,bathroom,SHINEd_sun_aghyqhbptboemmoq.tif,23,0.0666666666666667,0.0666666666666667,0.766666666666667,1998.254541916,1999.100024291,13,1998.321473625,1998.387493666,1999.127852791,1999.887859666,1,0.845482374999847
124,5,6,categorization,0,kitchen,SHINEd_sun_admlmbcdswaszruo.tif,79,0.0666666666666667,0.0666666666666667,0.916666666666667,1999.89375075,2000.895441208,9,1999.955532,2000.016371958,2000.901514166,2001.81151975,1,1.00169045799998
124,6,6,categorization,0,kitchen,SHINEd_sun_abrcnpqqhmjwekyf.tif,73,0.0666666666666667,0.0666666666666667,1.18333333333333,2001.817285208,2002.615927291,9,2001.879019625,2001.939973708,2002.625340708,2003.802045916,1,0.798642083000004
124,7,6,categorization,0,bathroom,SHINEd_sun_axxbkopsgyouuebh.tif,58,0.0666666666666667,0.0666666666666667,1.8,2003.812502583,2004.624805958,13,2003.879477625,2003.944274333,2004.650913,2006.444302125,1,0.812303375000056
124,8,6,categorization,0,bathroom,SHINEd_sun_ambriybtogmepttm.tif,36,0.0666666666666667,0.0666666666666667,0.883333333333333,2006.462104333,2007.548576833,9,2006.528899208,2006.594222125,2007.567921666,2008.444592791,0,1.0864724999999
124,9,6,categorization,0,kitchen,SHINEd_sun_adgqasybjyktddhj.tif,78,0.0666666666666667,0.0666666666666667,1.83333333333333,2008.450279958,2009.287726375,9,2008.512025333,2008.572937791,2009.291279875,2011.117997666,1,0.83744641699991
124,10,6,categorization,0,kitchen,SHINEd_sun_agzzivivdpnawacl.tif,89,0.0666666666666667,0.0666666666666667,1.76666666666667,2011.135296833,2011.778124416,13,2011.202072791,2011.267450791,2011.806932041,2013.566972833,0,0.642827583000098
124,11,6,categorization,0,bathroom,SHINEd_sun_aggnnqpdorgxpvce.tif,21,0.0666666666666667,0.0666666666666667,0.983333333333333,2013.582644125,2015.05589025,9,2013.64949875,2013.715282041,2015.06741175,2016.0440865,0,1.47324612500006
124,12,6,categorization,0,bathroom,SHINEd_sun_anryaplzeujmzfkd.tif,39,0.0666666666666667,0.0666666666666667,0.883333333333333,2016.04965275,2016.95107725,9,2016.111443291,2016.172288958,2016.957454916,2017.834126416,0,0.901424500000076
124,13,6,categorization,0,bathroom,SHINEd_sun_apkxzenqapsujocq.tif,45,0.0666666666666667,0.0666666666666667,0.85,2017.839819666,2018.671146375,13,2017.901474416,2017.962474166,2018.681459125,2019.524796291,1,0.831326708999995
124,14,6,categorization,0,bathroom,SHINEd_sun_acgyywnybuveqsro.tif,18,0.0666666666666667,0.0666666666666667,0.733333333333333,2019.5301435,2020.119670666,13,2019.591924458,2019.652787083,2020.138418666,2020.865088458,1,0.589527166000153
124,15,6,categorization,0,kitchen,SHINEd_sun_abftihopvusyfakt.tif,71,0.0666666666666667,0.0666666666666667,1.88333333333333,2020.86989025,2021.8630845,9,2020.931577041,2020.992578208,2021.877614333,2023.754323708,1,0.993194249999988
124,16,6,categorization,0,kitchen,SHINEd_sun_awcpdzzznmweyyhv.tif,106,0.0666666666666667,0.0666666666666667,0.816666666666667,2023.77337475,2024.983334,13,2023.840052833,2023.90546775,2024.992069666,2025.802077375,0,1.20995925000011
124,17,6,categorization,0,bathroom,SHINEd_sun_apynckhmoftszqoq.tif,47,0.0666666666666667,0.0666666666666667,1.9,2025.807860041,2026.6395735,13,2025.869626916,2025.930505625,2026.64888075,2028.542274875,1,0.831713459000184
124,18,6,categorization,0,kitchen,SHINEd_sun_ajcbwwvdlsvjyzje.tif,96,0.0666666666666667,0.0666666666666667,0.983333333333333,2028.560232458,2029.847369916,9,2028.627174333,2028.692514666,2029.861811375,2030.838484333,1,1.28713745799996
124,19,6,categorization,0,kitchen,SHINEd_sun_aexklacwqwezaorf.tif,84,0.0666666666666667,0.0666666666666667,0.75,2030.843449666,2031.599783791,9,2030.905103166,2030.966038375,2031.617997916,2032.361336833,1,0.756334124999967
124,20,6,categorization,0,bathroom,SHINEd_sun_apmqjbnwghzuhhzh.tif,46,0.0666666666666667,0.0666666666666667,1.6,2032.367025083,2032.943121708,13,2032.428714166,2032.489672166,2032.958136166,2034.551506875,1,0.576096624999991
124,21,6,categorization,0,bathroom,SHINEd_sun_amzlamotzwfkwjco.tif,37,0.0666666666666667,0.0666666666666667,1.58333333333333,2034.569153541,2035.394679,9,2034.63575675,2034.702030666,2035.407617291,2036.984334666,0,0.825525458999891
124,22,6,categorization,0,kitchen,SHINEd_sun_avszsnwsbuqfgzbn.tif,105,0.0666666666666667,0.0666666666666667,1.11666666666667,2036.994383333,2037.794802041,9,2037.061179333,2037.126395166,2037.816443208,2038.926481291,1,0.800418707999825
124,23,6,categorization,0,bathroom,SHINEd_sun_ahaulkltgpkeeemi.tif,26,0.0666666666666667,0.0666666666666667,1.53333333333333,2038.93549575,2039.588254375,13,2039.00015375,2039.066592208,2039.605594375,2041.132302541,1,0.652758624999933
124,24,6,categorization,0,bathroom,SHINEd_sun_abapwbhyhkfixyex.tif,14,0.0666666666666667,0.0666666666666667,1.48333333333333,2041.145652916,2042.0593265,9,2041.212388291,2041.27771925,2042.084147583,2043.560866333,0,0.91367358399998
124,25,6,categorization,0,kitchen,SHINEd_sun_aenotlpyftoioydp.tif,82,0.0666666666666667,0.0666666666666667,1.1,2043.579754708,2044.505997291,9,2043.646772583,2043.711958583,2044.535178791,2045.6285535,1,0.926242582999976
124,26,6,categorization,0,kitchen,SHINEd_sun_abdenxonkemggwsq.tif,69,0.0666666666666667,0.0666666666666667,0.933333333333333,2045.638531375,2047.2674435,9,2045.703321291,2045.770518791,2047.297129625,2048.223802291,1,1.62891212499994
124,27,6,categorization,0,kitchen,SHINEd_sun_aunzlwrbjumxhwdj.tif,103,0.0666666666666667,0.0666666666666667,0.816666666666667,2048.228978625,2048.975455666,13,2048.29085625,2048.351494625,2048.986634333,2049.796638708,0,0.746477041000162
124,28,6,categorization,0,bathroom,SHINEd_sun_aoybiabnpadelefl.tif,41,0.0666666666666667,0.0666666666666667,1.78333333333333,2049.802352291,2050.422697958,13,2049.864024708,2049.924915125,2050.426783125,2052.203509666,1,0.620345667000038
124,29,6,categorization,0,kitchen,SHINEd_sun_akcjzhbbjlbogpdi.tif,99,0.0666666666666667,0.0666666666666667,0.766666666666667,2052.221069708,2053.01066325,9,2052.287874916,2052.35376175,2053.026569166,2053.786574125,1,0.789593542000148
124,30,6,categorization,0,kitchen,SHINEd_sun_ahpczsiumwwocjkv.tif,92,0.0666666666666667,0.0666666666666667,1.45,2053.792281,2054.599366583,13,2053.854039791,2053.914831708,2054.616793916,2056.060185583,0,0.807085583000116
124,31,6,categorization,0,kitchen,SHINEd_sun_aarfiyshqohlwkmo.tif,67,0.0666666666666667,0.0666666666666667,0.75,2056.077366833,2056.881384291,9,2056.144465625,2056.209567791,2056.899152875,2057.642534666,1,0.804017458000089
124,32,6,categorization,0,kitchen,SHINEd_sun_auticobqsbwgoppi.tif,104,0.0666666666666667,0.0666666666666667,1.36666666666667,2057.658635541,2058.447257541,9,2057.721417583,2057.781440916,2058.466562833,2059.82661575,1,0.788622000000032
124,33,6,categorization,0,kitchen,SHINEd_sun_auaiucuqpdausiva.tif,102,0.0666666666666667,0.0666666666666667,0.75,2059.843125541,2060.588038958,9,2059.910049833,2059.975142541,2060.615056583,2061.358450958,1,0.744913417000134
124,34,6,categorization,0,kitchen,SHINEd_sun_azmutvzbxypaceni.tif,110,0.0666666666666667,0.0666666666666667,0.783333333333333,2061.375086125,2062.367507375,9,2061.442177291,2061.500079,2062.385557625,2063.162231375,1,0.992421250000007
124,35,6,categorization,0,bathroom,SHINEd_sun_azqyogdvyhahyram.tif,60,0.0666666666666667,0.0666666666666667,1.11666666666667,2063.16779775,2064.615450416,13,2063.229706666,2063.2903685,2064.626556166,2065.736594166,1,1.44765266600007
124,36,6,categorization,0,kitchen,SHINEd_sun_axyyrmzcupyhlivc.tif,107,0.0666666666666667,0.0666666666666667,0.766666666666667,2065.745801958,2066.736580333,13,2065.810640166,2065.878163333,2066.750550291,2067.51058775,0,0.990778374999991
124,37,6,categorization,0,kitchen,SHINEd_sun_aixorpehvfykdynp.tif,95,0.0666666666666667,0.0666666666666667,0.716666666666667,2067.527173791,2068.214875541,9,2067.594175208,2067.652753625,2068.221935958,2068.931940208,1,0.687701749999633
124,38,6,categorization,0,kitchen,SHINEd_sun_aamedkxepzlwuxes.tif,65,0.0666666666666667,0.0666666666666667,1.33333333333333,2068.936740916,2069.782908,13,2068.998586166,2069.059381458,2069.795201875,2071.121905083,0,0.846167084000172
124,39,6,categorization,0,kitchen,SHINEd_sun_aqeaevwwwjoqhzvl.tif,101,0.0666666666666667,0.0666666666666667,1.75,2071.140499791,2072.08119725,9,2071.208565208,2071.2727295,2072.095065958,2073.838449,1,0.940697459000148
124,40,6,categorization,0,bathroom,SHINEd_sun_axyrejkiiaqiurjk.tif,59,0.0666666666666667,0.0666666666666667,1.13333333333333,2073.857480291,2074.716059166,13,2073.924562666,2073.990003375,2074.729191291,2075.855894125,1,0.858578875000148
124,41,6,categorization,0,bathroom,SHINEd_sun_ajlawzvmubibwbpy.tif,30,0.0666666666666667,0.0666666666666667,1.63333333333333,2075.867168,2076.682186708,13,2075.931822833,2075.999555708,2076.706351708,2078.333077291,1,0.81501870799957
124,42,6,categorization,0,kitchen,SHINEd_sun_akchetnepxlcxhsu.tif,98,0.0666666666666667,0.0666666666666667,1.43333333333333,2078.351046666,2079.148574,13,2078.418243375,2078.483504375,2079.17372775,2080.60043525,0,0.797527333999824
124,43,6,categorization,0,bathroom,SHINEd_sun_ahcvzmoyaycdoftf.tif,27,0.0666666666666667,0.0666666666666667,1.83333333333333,2080.619025916,2081.379804083,13,2080.686417625,2080.75102475,2081.408259875,2083.23497325,1,0.760778167000353
124,44,6,categorization,0,kitchen,SHINEd_sun_afuyedyxivkhecmu.tif,85,0.0666666666666667,0.0666666666666667,1.93333333333333,2083.251546125,2084.009056375,9,2083.318800458,2083.384197416,2084.023755166,2085.950468958,1,0.757510249999996
124,45,6,categorization,0,kitchen,SHINEd_labelme_brsyyvweiuaazfr.tif,61,0.0666666666666667,0.0666666666666667,1.26666666666667,2085.9680625,2088.414909708,9,2086.0351285,2086.100366291,2088.41974875,2089.67978625,1,2.44684720799978
124,46,6,categorization,0,kitchen,SHINEd_sun_acfmftudsenhrfhy.tif,74,0.0666666666666667,0.0666666666666667,1.86666666666667,2089.69811425,2090.871152916,9,2089.765398083,2089.83048,2090.886910375,2092.746945125,1,1.17303866600014
124,47,6,categorization,0,bathroom,SHINEd_sun_aofnryafpsjimzsb.tif,40,0.0666666666666667,0.0666666666666667,1.41666666666667,2092.758305791,2096.063195416,9,2092.823395208,2092.890743833,2096.079785,2097.489832375,0,3.30488962499976
124,48,6,categorization,0,bathroom,SHINEd_sun_atstyziqcmkahyxk.tif,51,0.0666666666666667,0.0666666666666667,1.11666666666667,2097.508681083,2098.148029666,13,2097.575739166,2097.641198458,2098.164484916,2099.274548791,1,0.639348583000356
124,49,6,categorization,0,bathroom,SHINEd_sun_aspsyogrekjtfozg.tif,50,0.0666666666666667,0.0666666666666667,1.8,2099.286356458,2099.906614375,13,2099.35409025,2099.419489125,2099.926796541,2101.720180875,1,0.620257917000345
124,50,6,categorization,0,bathroom,SHINEd_sun_anhioqovhscjqqwb.tif,38,0.0666666666666667,0.0666666666666667,1.25,2101.740022083,2102.351334833,13,2101.807590291,2101.872692541,2102.37997725,2103.623350875,1,0.611312749999797
124,1,7,categorization,0,kitchen,SHINEd_sun_admlmbcdswaszruo.tif,79,0.0666666666666667,0.0666666666666667,0.883333333333333,2121.772013375,2123.118676708,9,2121.83448725,2121.895061208,2123.13081225,2124.007485541,1,1.34666333299992
124,2,7,categorization,0,bathroom,SHINEd_sun_aleqenyvunhactkl.tif,32,0.0666666666666667,0.0666666666666667,1.03333333333333,2124.012750708,2125.062940041,13,2124.074460541,2124.13549475,2125.070759541,2126.097473958,1,1.05018933299971
124,3,7,categorization,0,bathroom,SHINEd_sun_alotolagknyrgtsk.tif,35,0.0666666666666667,0.0666666666666667,1.06666666666667,2126.110357958,2127.41194725,13,2126.175004458,2126.24153825,2127.433030291,2128.493079291,1,1.30158929200024
124,4,7,categorization,0,bathroom,SHINEd_sun_aunuadmjocsddsrl.tif,52,0.0666666666666667,0.0666666666666667,0.833333333333333,2128.505544541,2129.657146916,13,2128.57080475,2128.636421791,2129.676064125,2130.502767666,1,1.15160237500004
124,5,7,categorization,0,kitchen,SHINEd_sun_abrcnpqqhmjwekyf.tif,73,0.0666666666666667,0.0666666666666667,0.716666666666667,2130.5183405,2131.311068583,9,2130.581236375,2130.641084083,2131.326184,2132.036188708,1,0.792728083000384
124,6,7,categorization,0,kitchen,SHINEd_sun_abdenxonkemggwsq.tif,69,0.0666666666666667,0.0666666666666667,0.733333333333333,2132.041055208,2132.750600125,9,2132.102797208,2132.163665625,2132.76534375,2133.492014291,1,0.709544916999675
124,7,7,categorization,0,bathroom,SHINEd_sun_abjtwfukuwddzted.tif,15,0.0666666666666667,0.0666666666666667,1.38333333333333,2133.4984685,2134.351325791,9,2133.560285416,2133.621038125,2134.356524083,2135.733251291,0,0.852857290999964
124,8,7,categorization,0,kitchen,SHINEd_sun_abdxkyyxwfskuaqb.tif,70,0.0666666666666667,0.0666666666666667,0.9,2135.750946083,2136.711547375,9,2135.818157625,2135.883282,2136.740184291,2137.633523458,1,0.960601291999865
124,9,7,categorization,0,kitchen,SHINEd_sun_abpwyqmlzafvklqo.tif,72,0.0666666666666667,0.0666666666666667,0.816666666666667,2137.639453541,2138.606892125,9,2137.701142666,2137.761985416,2138.614383541,2139.424388375,1,0.967438583999865
124,10,7,categorization,0,kitchen,SHINEd_sun_ajkqhtgcbgpcwrwn.tif,97,0.0666666666666667,0.0666666666666667,0.85,2139.432223041,2140.34332075,13,2139.493971708,2139.554780833,2140.356804583,2141.200141583,0,0.911097709000387
124,11,7,categorization,0,kitchen,SHINEd_sun_aqeaevwwwjoqhzvl.tif,101,0.0666666666666667,0.0666666666666667,1.6,2141.205688375,2141.982634375,13,2141.267224583,2141.328313625,2141.996707,2143.590098041,0,0.776945999999953
124,12,7,categorization,0,bathroom,SHINEd_sun_aapitsgbtktqubfy.tif,12,0.0666666666666667,0.0666666666666667,1.75,2143.609089625,2144.288505083,13,2143.676241833,2143.741788,2144.315349041,2146.058734666,1,0.679415458000221
124,13,7,categorization,0,kitchen,SHINEd_sun_agorklincwxrdtga.tif,87,0.0666666666666667,0.0666666666666667,1.1,2146.077028625,2146.834047791,9,2146.144069375,2146.20943125,2146.847626041,2147.941005666,1,0.757019166000191
124,14,7,categorization,0,kitchen,SHINEd_sun_aaxxjlsuzvqlgylf.tif,68,0.0666666666666667,0.0666666666666667,1.46666666666667,2147.953431458,2148.664167916,9,2148.018787375,2148.085844708,2148.692485833,2150.152519583,1,0.710736458000156
124,15,7,categorization,0,bathroom,SHINEd_sun_atstyziqcmkahyxk.tif,51,0.0666666666666667,0.0666666666666667,1.25,2150.170134166,2150.878173125,13,2150.23715775,2150.303027916,2150.891805916,2152.135185375,1,0.708038959000078
124,16,7,categorization,0,bathroom,SHINEd_sun_anhioqovhscjqqwb.tif,38,0.0666666666666667,0.0666666666666667,1.13333333333333,2152.153350833,2152.751291416,13,2152.220439583,2152.286037291,2152.774570958,2153.901283666,1,0.597940583000309
124,17,7,categorization,0,kitchen,SHINEd_sun_aixorpehvfykdynp.tif,95,0.0666666666666667,0.0666666666666667,1.33333333333333,2153.917751416,2154.951184333,9,2153.984963791,2154.050736291,2154.969190583,2156.29591325,1,1.03343291700003
124,18,7,categorization,0,kitchen,SHINEd_sun_ahdycvpopffkzzsu.tif,90,0.0666666666666667,0.0666666666666667,1.86666666666667,2156.313847916,2158.230623375,9,2156.380434,2156.44779025,2158.25049475,2160.110538791,1,1.91677545899984
124,19,7,categorization,0,bathroom,SHINEd_sun_acegryoqftbzowsg.tif,17,0.0666666666666667,0.0666666666666667,1.58333333333333,2160.128555291,2161.919046875,13,2160.196807166,2160.261184458,2161.930392041,2163.507109041,1,1.79049158399994
124,20,7,categorization,0,bathroom,SHINEd_sun_ambriybtogmepttm.tif,36,0.0666666666666667,0.0666666666666667,1.05,2163.525455458,2164.768270916,13,2163.59286075,2163.657776041,2164.780843625,2165.824237208,1,1.24281545799977
124,21,7,categorization,0,kitchen,SHINEd_sun_avszsnwsbuqfgzbn.tif,105,0.0666666666666667,0.0666666666666667,0.9,2165.836130833,2166.534984791,9,2165.901465583,2165.967551125,2166.558476458,2167.45187175,1,0.6988539580002
124,22,7,categorization,0,kitchen,SHINEd_sun_afuyedyxivkhecmu.tif,85,0.0666666666666667,0.0666666666666667,0.7,2167.464879291,2168.814917291,13,2167.530726541,2167.597853833,2168.834061416,2169.5274025,0,1.35003799999959
124,23,7,categorization,0,bathroom,SHINEd_sun_ahijqszoswveeyji.tif,28,0.0666666666666667,0.0666666666666667,0.933333333333333,2169.532787958,2170.390880291,9,2169.594610791,2169.655415458,2170.407748166,2171.334421208,0,0.858092333000059
124,24,7,categorization,0,bathroom,SHINEd_sun_axldvoqbuvuggfmq.tif,57,0.0666666666666667,0.0666666666666667,1.95,2171.339973666,2172.046482416,13,2171.40179725,2171.462534833,2172.064372333,2174.007748666,1,0.706508750000012
124,25,7,categorization,0,kitchen,SHINEd_sun_akchetnepxlcxhsu.tif,98,0.0666666666666667,0.0666666666666667,1.06666666666667,2174.026798,2174.783588,13,2174.093429541,2174.159299416,2174.797688083,2175.8577385,0,0.75678999999991
124,26,7,categorization,0,bathroom,SHINEd_sun_alkosphxlxwjwgjd.tif,34,0.0666666666666667,0.0666666666666667,1.2,2175.866475458,2176.443032375,13,2175.930550833,2175.996403541,2176.469982458,2177.663378,1,0.576556916999834
124,27,7,categorization,0,bathroom,SHINEd_sun_agyqfjcfkdcydepw.tif,25,0.0666666666666667,0.0666666666666667,0.75,2177.682969625,2179.270623166,9,2177.749590541,2177.816521875,2179.285797416,2180.029137083,0,1.58765354099978
124,28,7,categorization,0,bathroom,SHINEd_sun_apjevzvycyhuqghb.tif,43,0.0666666666666667,0.0666666666666667,0.816666666666667,2180.033961833,2180.870267208,9,2180.09583425,2180.156580916,2180.875079916,2181.685085458,0,0.836305374999938
124,29,7,categorization,0,kitchen,SHINEd_sun_aypmqwcualkenuoe.tif,109,0.0666666666666667,0.0666666666666667,1.96666666666667,2181.690522875,2182.53517025,9,2181.752285375,2181.813064291,2182.548367166,2184.508420166,1,0.844647375000022
124,30,7,categorization,0,bathroom,SHINEd_sun_aclfzgynxzxlbepz.tif,19,0.0666666666666667,0.0666666666666667,1.2,2184.523859125,2185.400061541,13,2184.590576625,2184.656270458,2185.411286166,2186.604667041,1,0.876202416000069
124,31,7,categorization,0,bathroom,SHINEd_sun_ahqjwnzgolcaoidx.tif,29,0.0666666666666667,0.0666666666666667,0.883333333333333,2186.619328791,2187.203323791,13,2186.685662958,2186.750489,2187.223959541,2188.100665,1,0.583994999999959
124,32,7,categorization,0,kitchen,SHINEd_sun_auaiucuqpdausiva.tif,102,0.0666666666666667,0.0666666666666667,1.33333333333333,2188.117068166,2188.77484375,9,2188.183456833,2188.249372875,2188.784419375,2190.111122666,1,0.657775583999864
124,33,7,categorization,0,kitchen,SHINEd_sun_awcpdzzznmweyyhv.tif,106,0.0666666666666667,0.0666666666666667,1.45,2190.123078875,2191.371416125,9,2190.189568208,2190.255404,2191.399078666,2192.842454166,1,1.24833725000008
124,34,7,categorization,0,kitchen,SHINEd_sun_aapllqyqlykszopd.tif,66,0.0666666666666667,0.0666666666666667,1.15,2192.858348583,2193.71144775,13,2192.923947291,2192.9896355,2193.729918375,2194.873294583,0,0.853099166999982
124,35,7,categorization,0,bathroom,SHINEd_sun_apynckhmoftszqoq.tif,47,0.0666666666666667,0.0666666666666667,0.966666666666667,2194.886480458,2195.592439458,13,2194.951991833,2195.016638625,2195.606568041,2196.566623166,1,0.705959000000348
124,36,7,categorization,0,bathroom,SHINEd_sun_aoybiabnpadelefl.tif,41,0.0666666666666667,0.0666666666666667,1.45,2196.584410458,2197.486269125,9,2196.650529833,2196.71754325,2197.503150416,2198.946532041,0,0.901858666999942
124,37,7,categorization,0,bathroom,SHINEd_sun_aqrpegblszgcoujh.tif,48,0.0666666666666667,0.0666666666666667,0.8,2198.956381291,2199.774607583,13,2199.023110875,2199.083416958,2199.789097333,2200.582435458,1,0.818226291999963
124,38,7,categorization,0,kitchen,SHINEd_sun_ahpczsiumwwocjkv.tif,92,0.0666666666666667,0.0666666666666667,1.45,2200.588160458,2201.534133375,13,2200.649914416,2200.7107035,2201.546272166,2202.989650625,0,0.945972916999835
124,39,7,categorization,0,bathroom,SHINEd_sun_amzlamotzwfkwjco.tif,37,0.0666666666666667,0.0666666666666667,1.1,2203.000766458,2204.059816333,13,2203.067223958,2203.133082791,2204.089722833,2205.183091,1,1.05904987500026
124,40,7,categorization,0,kitchen,SHINEd_sun_aegoxogugdkwpmpj.tif,80,0.0666666666666667,0.0666666666666667,1.16666666666667,2205.193221791,2206.11543525,13,2205.258561083,2205.325592625,2206.1311245,2207.29116375,0,0.922213458999977
124,41,7,categorization,0,kitchen,SHINEd_sun_aehawpgmrlhlvcow.tif,81,0.0666666666666667,0.0666666666666667,1.31666666666667,2207.310202458,2208.9181135,13,2207.377046958,2207.442740166,2208.932160958,2210.242219291,0,1.60791104200007
124,42,7,categorization,0,kitchen,SHINEd_sun_auticobqsbwgoppi.tif,104,0.0666666666666667,0.0666666666666667,1.68333333333333,2210.259519458,2210.984553875,9,2210.326352083,2210.391789541,2210.996560833,2212.673265125,1,0.725034417000188
124,43,7,categorization,0,bathroom,SHINEd_sun_aljolscmmzydegqp.tif,33,0.0666666666666667,0.0666666666666667,0.966666666666667,2212.692622125,2213.563152041,13,2212.758621916,2212.824082208,2213.580224375,2214.540229708,1,0.870529916000123
124,44,7,categorization,0,kitchen,SHINEd_labelme_rykdqxenmhulbdn.tif,63,0.0666666666666667,0.0666666666666667,1.4,2214.5484985,2215.286747791,13,2214.610272291,2214.671136416,2215.306350208,2216.699744125,0,0.738249291000102
124,45,7,categorization,0,kitchen,SHINEd_sun_abftihopvusyfakt.tif,71,0.0666666666666667,0.0666666666666667,0.783333333333333,2216.718070416,2217.71115275,13,2216.782447791,2216.850420875,2217.740346541,2218.517019916,0,0.993082334000064
124,46,7,categorization,0,kitchen,SHINEd_sun_aamedkxepzlwuxes.tif,65,0.0666666666666667,0.0666666666666667,1.08333333333333,2218.52274125,2219.327032916,13,2218.584489958,2218.64541425,2219.330870875,2220.4075925,0,0.804291666000154
124,47,7,categorization,0,bathroom,SHINEd_sun_ausgutylgojavyoq.tif,53,0.0666666666666667,0.0666666666666667,1.43333333333333,2220.417259708,2221.00184525,13,2220.482648916,2220.546811125,2221.019638791,2222.446359916,1,0.584585541999786
124,48,7,categorization,0,kitchen,SHINEd_sun_ahljzhgcdpomplvg.tif,91,0.0666666666666667,0.0666666666666667,1.75,2222.457993625,2222.943014333,13,2222.519867833,2222.580603,2222.949065833,2224.692441583,0,0.485020707999865
124,49,7,categorization,0,kitchen,SHINEd_sun_agzzivivdpnawacl.tif,89,0.0666666666666667,0.0666666666666667,1.21666666666667,2224.71091775,2225.634897166,13,2224.775589875,2224.843169375,2225.648751958,2226.858796041,0,0.923979415999838
124,50,7,categorization,0,bathroom,SHINEd_sun_asfwthctfqerjvxr.tif,49,0.0666666666666667,0.0666666666666667,1.31666666666667,2226.872042333,2228.146156541,9,2226.937443583,2227.004455125,2228.160572791,2229.470614333,0,1.2741142079999
124,1,8,categorization,0,bathroom,SHINEd_sun_ajlawzvmubibwbpy.tif,30,0.0666666666666667,0.0666666666666667,1.18333333333333,2234.626630791,2235.455005291,13,2234.689033541,2234.7493025,2235.467974375,2236.644683,1,0.828374499999882
124,2,8,categorization,0,bathroom,SHINEd_sun_apeeialkgkuxddgh.tif,42,0.0666666666666667,0.0666666666666667,0.983333333333333,2236.656016,2237.301904041,13,2236.722951875,2236.782996666,2237.322918166,2238.299623666,1,0.645888041000035
124,3,8,categorization,0,bathroom,SHINEd_sun_awnqiikzaispgmwo.tif,56,0.0666666666666667,0.0666666666666667,1.65,2238.315408875,2238.942296708,13,2238.382159083,2238.447696208,2238.949541125,2240.592930291,1,0.626887833000183
124,4,8,categorization,0,kitchen,SHINEd_sun_amjjdeyrggfqgmom.tif,100,0.0666666666666667,0.0666666666666667,1.23333333333333,2240.610243541,2241.838745833,13,2240.677263666,2240.742849333,2241.868846416,2243.095560041,0,1.22850229200003
124,5,8,categorization,0,kitchen,SHINEd_sun_adgqasybjyktddhj.tif,78,0.0666666666666667,0.0666666666666667,0.916666666666667,2243.109079083,2243.807336375,9,2243.178036666,2243.241519,2243.83152325,2244.741569875,1,0.698257292000108
124,6,8,categorization,0,bathroom,SHINEd_sun_aofnryafpsjimzsb.tif,40,0.0666666666666667,0.0666666666666667,1.56666666666667,2244.754294708,2245.63859275,13,2244.820004916,2244.886714333,2245.655739833,2247.215783666,1,0.884298041999955
124,7,8,categorization,0,kitchen,SHINEd_sun_acfmftudsenhrfhy.tif,74,0.0666666666666667,0.0666666666666667,1.63333333333333,2247.233724166,2248.328755125,9,2247.300800916,2247.366388125,2248.356494125,2249.983198916,1,1.09503095900027
124,8,8,categorization,0,bathroom,SHINEd_sun_ahcvzmoyaycdoftf.tif,27,0.0666666666666667,0.0666666666666667,1.1,2250.00161475,2250.782714333,13,2250.068824666,2250.134296875,2250.806137083,2251.8995165,1,0.781099583000014
124,9,8,categorization,0,kitchen,SHINEd_sun_aarfiyshqohlwkmo.tif,67,0.0666666666666667,0.0666666666666667,1.38333333333333,2251.910943666,2252.698525583,13,2251.976301208,2252.040590458,2252.713432791,2254.090153583,0,0.787581916999898
124,10,8,categorization,0,kitchen,SHINEd_labelme_brsyyvweiuaazfr.tif,61,0.0666666666666667,0.0666666666666667,0.766666666666667,2254.108945,2255.075695125,9,2254.175986083,2254.241430791,2255.098563,2255.858618375,1,0.96675012500009
124,11,8,categorization,0,kitchen,SHINEd_sun_ajcbwwvdlsvjyzje.tif,96,0.0666666666666667,0.0666666666666667,1.45,2255.875063166,2257.478896125,9,2255.941692083,2256.006870916,2257.492694083,2258.93607625,1,1.6038329590001
124,12,8,categorization,0,bathroom,SHINEd_sun_aspsyogrekjtfozg.tif,50,0.0666666666666667,0.0666666666666667,0.983333333333333,2258.948803958,2259.748024083,13,2259.015655166,2259.081180916,2259.771122791,2260.747797,1,0.79922012499992
124,13,8,categorization,0,kitchen,SHINEd_sun_acxkpeoqbwcxfvip.tif,77,0.0666666666666667,0.0666666666666667,0.716666666666667,2260.753554583,2261.574919083,9,2260.815292291,2260.876251875,2261.578228708,2262.2882355,1,0.821364500000072
124,14,8,categorization,0,kitchen,SHINEd_sun_azmutvzbxypaceni.tif,110,0.0666666666666667,0.0666666666666667,1.41666666666667,2262.293791125,2263.510780875,13,2262.35554575,2262.416415458,2263.518732833,2264.928787083,0,1.21698974999981
124,15,8,categorization,0,bathroom,SHINEd_sun_apkxzenqapsujocq.tif,45,0.0666666666666667,0.0666666666666667,1.21666666666667,2264.938769458,2265.66610975,13,2265.004491916,2265.071075375,2265.694222791,2266.904252791,1,0.727340292000008
124,16,8,categorization,0,bathroom,SHINEd_sun_acgyywnybuveqsro.tif,18,0.0666666666666667,0.0666666666666667,1.61666666666667,2266.914892166,2267.510047291,13,2266.98016675,2267.0481075,2267.538673125,2269.148715166,1,0.595155125000019
124,17,8,categorization,0,kitchen,SHINEd_sun_akcjzhbbjlbogpdi.tif,99,0.0666666666666667,0.0666666666666667,0.783333333333333,2269.167054041,2269.879678083,9,2269.234154625,2269.299900416,2269.906875208,2270.683589541,1,0.712624041999788
124,18,8,categorization,0,kitchen,SHINEd_sun_aunzlwrbjumxhwdj.tif,103,0.0666666666666667,0.0666666666666667,1.98333333333333,2270.700434666,2271.4067255,9,2270.76507025,2270.831397916,2271.4168025,2273.393501458,1,0.706290833999901
124,19,8,categorization,0,kitchen,SHINEd_sun_axyyrmzcupyhlivc.tif,107,0.0666666666666667,0.0666666666666667,0.983333333333333,2273.412406958,2274.248600458,9,2273.479127625,2273.545087125,2274.26814875,2275.244821708,1,0.836193500000263
124,20,8,categorization,0,kitchen,SHINEd_labelme_kxvouciolcpqplr.tif,62,0.0666666666666667,0.0666666666666667,0.8,2275.250554666,2276.046356416,9,2275.312435166,2275.37316325,2276.058371541,2276.851710833,1,0.79580175000001
124,21,8,categorization,0,bathroom,SHINEd_sun_abapwbhyhkfixyex.tif,14,0.0666666666666667,0.0666666666666667,0.733333333333333,2276.856793375,2278.461903791,13,2276.918926291,2276.979338375,2278.481546416,2279.208220041,1,1.60511041600012
124,22,8,categorization,0,kitchen,SHINEd_sun_aadbddgrdsjugojn.tif,64,0.0666666666666667,0.0666666666666667,0.966666666666667,2279.213846125,2280.062452416,9,2279.275603333,2279.336402166,2280.071549375,2281.031553041,1,0.848606290999669
124,23,8,categorization,0,kitchen,SHINEd_sun_acgtpgfybqjmzeyw.tif,75,0.0666666666666667,0.0666666666666667,0.866666666666667,2281.036488958,2281.678228333,9,2281.098349833,2281.159158125,2281.694243875,2282.55425,1,0.641739374999815
124,24,8,categorization,0,kitchen,SHINEd_sun_ahspylgoovwmwvgk.tif,93,0.0666666666666667,0.0666666666666667,1.23333333333333,2282.560053166,2284.27846125,13,2282.62164125,2282.682616916,2284.285430583,2285.51214775,0,1.71840808399975
124,25,8,categorization,0,bathroom,SHINEd_sun_agrwbmhcpmfuwmsg.tif,24,0.0666666666666667,0.0666666666666667,1.9,2285.529819666,2286.20657375,13,2285.598326041,2285.662476041,2286.235540958,2288.128923625,1,0.676754084000095
124,26,8,categorization,0,kitchen,SHINEd_sun_aexklacwqwezaorf.tif,84,0.0666666666666667,0.0666666666666667,0.866666666666667,2288.150013041,2289.718003916,13,2288.217166125,2288.282505416,2289.735238625,2290.595244666,0,1.56799087499985
124,27,8,categorization,0,bathroom,SHINEd_sun_axyrejkiiaqiurjk.tif,59,0.0666666666666667,0.0666666666666667,0.966666666666667,2290.600873833,2291.357915916,9,2290.66257375,2290.723520375,2291.375743791,2292.335748916,0,0.75704208299976
124,28,8,categorization,0,bathroom,SHINEd_sun_apmqjbnwghzuhhzh.tif,46,0.0666666666666667,0.0666666666666667,0.916666666666667,2292.340871833,2293.142099375,13,2292.40250475,2292.463448666,2293.148784583,2294.058790833,1,0.801227541999651
124,29,8,categorization,0,bathroom,SHINEd_sun_aavhrsfjbserjtht.tif,13,0.0666666666666667,0.0666666666666667,0.916666666666667,2294.064523208,2295.006362583,9,2294.12620525,2294.187175958,2295.022334083,2295.932339708,0,0.941839374999745
124,30,8,categorization,0,bathroom,SHINEd_sun_azqyogdvyhahyram.tif,60,0.0666666666666667,0.0666666666666667,1.4,2295.937784583,2296.869962083,13,2295.99944675,2296.060331416,2296.878836,2298.272213458,1,0.932177499999852
124,31,8,categorization,0,bathroom,SHINEd_sun_agguqiubmwhqqunb.tif,22,0.0666666666666667,0.0666666666666667,1.75,2298.287881041,2301.030931958,13,2298.354658375,2298.420145875,2301.039228666,2302.782577833,1,2.74305091699989
124,32,8,categorization,0,bathroom,SHINEd_sun_afcoljnjfoxjtgja.tif,20,0.0666666666666667,0.0666666666666667,1.25,2302.791211291,2303.4343365,9,2302.856799,2302.92080525,2303.461827666,2304.705216583,0,0.643125209000118
124,33,8,categorization,0,bathroom,SHINEd_sun_aggnnqpdorgxpvce.tif,21,0.0666666666666667,0.0666666666666667,1.05,2304.725137166,2306.367525166,9,2304.790388,2304.855998458,2306.397671291,2307.4410375,0,1.64238800000021
124,34,8,categorization,0,bathroom,SHINEd_labelme_sfxiulhjbhlyiyt.tif,11,0.0666666666666667,0.0666666666666667,1.06666666666667,2307.452908708,2308.255420041,13,2307.518249083,2307.584119208,2308.274039875,2309.3340895,1,0.802511332999984
124,35,8,categorization,0,kitchen,SHINEd_sun_aggjlwcdjsjcaemh.tif,86,0.0666666666666667,0.0666666666666667,1.21666666666667,2309.353656916,2310.174222625,13,2309.421142958,2309.486526666,2310.188718833,2311.398768083,0,0.820565708999766
124,36,8,categorization,0,bathroom,SHINEd_sun_aghyqhbptboemmoq.tif,23,0.0666666666666667,0.0666666666666667,0.95,2311.416096416,2313.027856125,9,2311.482771541,2311.548561458,2313.058546208,2314.001886416,0,1.61175970900013
124,37,8,categorization,0,kitchen,SHINEd_sun_agubuxuukhzyzpdp.tif,88,0.0666666666666667,0.0666666666666667,0.9,2314.007684916,2314.709904916,9,2314.069603083,2314.130328625,2314.715712375,2315.609050958,1,0.702220000000125
124,38,8,categorization,0,kitchen,SHINEd_sun_aeqdocilnnpuvuhx.tif,83,0.0666666666666667,0.0666666666666667,1.78333333333333,2315.614615041,2316.438454375,9,2315.676294708,2315.737230375,2316.455956583,2318.232668375,1,0.82383933400024
124,39,8,categorization,0,bathroom,SHINEd_sun_auzqhkafidnkrwmo.tif,54,0.0666666666666667,0.0666666666666667,1.16666666666667,2318.250303958,2319.159583708,9,2318.317027041,2318.383352416,2319.190051375,2320.350089958,0,0.909279749999769
124,40,8,categorization,0,kitchen,SHINEd_sun_acwjdupvyjsugpay.tif,76,0.0666666666666667,0.0666666666666667,0.783333333333333,2320.360543166,2321.729401,9,2320.42751225,2320.492580833,2321.751518,2322.528191083,1,1.36885783400021
124,41,8,categorization,0,bathroom,SHINEd_sun_apkruvsevgegsdwp.tif,44,0.0666666666666667,0.0666666666666667,1.23333333333333,2322.534034541,2323.261772625,13,2322.595893666,2322.656651458,2323.275211583,2324.501914,1,0.727738084000066
124,42,8,categorization,0,kitchen,SHINEd_sun_aymvwlarqodbwuoc.tif,108,0.0666666666666667,0.0666666666666667,0.9,2324.517962583,2327.762104875,9,2324.584841541,2324.650244208,2327.7785975,2328.671936583,1,3.24414229200011
124,43,8,categorization,0,bathroom,SHINEd_sun_akiytfaagpdsphgz.tif,31,0.0666666666666667,0.0666666666666667,0.7,2328.677078583,2329.350672875,13,2328.738840625,2328.799634458,2329.368225791,2330.061564583,1,0.673594291999962
124,44,8,categorization,0,bathroom,SHINEd_sun_acduarbnmmoglmiv.tif,16,0.0666666666666667,0.0666666666666667,1.23333333333333,2330.067236416,2332.662384125,9,2330.128924166,2330.189850208,2332.675800333,2333.902521875,0,2.59514770899978
124,45,8,categorization,0,bathroom,SHINEd_sun_avhrdrntsqrjzccq.tif,55,0.0666666666666667,0.0666666666666667,1,2333.920244083,2335.594592875,13,2333.987346333,2334.053173916,2335.612443541,2336.60578375,1,1.67434879200027
124,46,8,categorization,0,bathroom,SHINEd_sun_ahaulkltgpkeeemi.tif,26,0.0666666666666667,0.0666666666666667,1.38333333333333,2336.611442916,2337.357877166,13,2336.673093416,2336.734045041,2337.36941925,2338.746123291,1,0.746434249999766
124,47,8,categorization,0,bathroom,SHINEd_sun_anryaplzeujmzfkd.tif,39,0.0666666666666667,0.0666666666666667,1.3,2338.758319541,2339.447837916,13,2338.823556708,2338.890708583,2339.463487208,2340.756876333,1,0.689518374999807
124,48,8,categorization,0,kitchen,SHINEd_sun_aenotlpyftoioydp.tif,82,0.0666666666666667,0.0666666666666667,0.833333333333333,2340.766567375,2341.595236,9,2340.831535041,2340.899072458,2341.621944125,2342.448648541,1,0.828668625000319
124,49,8,categorization,0,kitchen,SHINEd_sun_ahywdevtimnqcsln.tif,94,0.0666666666666667,0.0666666666666667,0.95,2342.460251541,2345.190119875,13,2342.526985291,2342.59253575,2345.195266625,2346.138605125,0,2.729868334
124,50,8,categorization,0,bathroom,SHINEd_sun_axxbkopsgyouuebh.tif,58,0.0666666666666667,0.0666666666666667,1.43333333333333,2346.144357916,2346.846238833,13,2346.20621225,2346.266944666,2346.852063791,2348.278766791,1,0.701880916999926
124,1,9,categorization,0,kitchen,SHINEd_sun_auaiucuqpdausiva.tif,102,0.0666666666666667,0.0666666666666667,1.08333333333333,2354.910243666,2355.781744208,13,2354.972233333,2355.032908166,2355.784556625,2356.861256708,0,0.871500541999922
124,2,9,categorization,0,bathroom,SHINEd_sun_axldvoqbuvuggfmq.tif,57,0.0666666666666667,0.0666666666666667,0.8,2356.870706458,2358.079728875,13,2356.935165916,2357.0013245,2358.10785075,2358.901205875,1,1.20902241700014
124,3,9,categorization,0,bathroom,SHINEd_sun_akiytfaagpdsphgz.tif,31,0.0666666666666667,0.0666666666666667,0.833333333333333,2358.907309666,2359.718471333,13,2358.969040166,2359.029930833,2359.732114875,2360.558785916,1,0.811161666999851
124,4,9,categorization,0,kitchen,SHINEd_sun_aapllqyqlykszopd.tif,66,0.0666666666666667,0.0666666666666667,1.45,2360.564031916,2361.19052375,9,2360.6257405,2360.686660166,2361.205172541,2362.648563875,1,0.626491833999808
124,5,9,categorization,0,kitchen,SHINEd_sun_ajkqhtgcbgpcwrwn.tif,97,0.0666666666666667,0.0666666666666667,1.3,2362.666305125,2363.519251208,13,2362.732984375,2362.793677083,2363.532681208,2364.826055416,0,0.852946083000006
124,6,9,categorization,0,bathroom,SHINEd_sun_acgyywnybuveqsro.tif,18,0.0666666666666667,0.0666666666666667,1.21666666666667,2364.837101791,2365.656075166,13,2364.904406916,2364.966911666,2365.672876,2366.882926208,1,0.818973375000041
124,7,9,categorization,0,bathroom,SHINEd_sun_aclfzgynxzxlbepz.tif,19,0.0666666666666667,0.0666666666666667,0.733333333333333,2366.893819166,2367.559945541,13,2366.958587666,2367.026570708,2367.5836255,2368.310327833,1,0.666126375000204
124,8,9,categorization,0,kitchen,SHINEd_sun_agubuxuukhzyzpdp.tif,88,0.0666666666666667,0.0666666666666667,1.03333333333333,2368.327201833,2369.974250875,9,2368.393957125,2368.459483625,2369.978892625,2371.005657083,1,1.64704904200016
124,9,9,categorization,0,kitchen,SHINEd_sun_abftihopvusyfakt.tif,71,0.0666666666666667,0.0666666666666667,1.1,2371.016726625,2371.861654458,9,2371.082861458,2371.147802416,2371.887864958,2372.981219791,1,0.844927832999929
124,10,9,categorization,0,kitchen,SHINEd_sun_aegoxogugdkwpmpj.tif,80,0.0666666666666667,0.0666666666666667,1.25,2372.990679541,2373.782222125,9,2373.052459,2373.1132845,2373.798432291,2375.041811458,1,0.791542583999671
124,11,9,categorization,0,bathroom,SHINEd_sun_aunuadmjocsddsrl.tif,52,0.0666666666666667,0.0666666666666667,1.4,2375.057669625,2375.928565458,13,2375.124507416,2375.19052425,2375.946522125,2377.339900916,1,0.87089583299985
124,12,9,categorization,0,kitchen,SHINEd_sun_ajcbwwvdlsvjyzje.tif,96,0.0666666666666667,0.0666666666666667,1.43333333333333,2377.359973916,2378.051098208,13,2377.427479583,2377.492476166,2378.064913375,2379.491617375,0,0.69112429200004
124,13,9,categorization,0,bathroom,SHINEd_sun_acduarbnmmoglmiv.tif,16,0.0666666666666667,0.0666666666666667,1.26666666666667,2379.51029025,2380.282595125,9,2379.5770655,2379.642608375,2380.29905875,2381.559110375,0,0.772304875000373
124,14,9,categorization,0,bathroom,SHINEd_sun_agrwbmhcpmfuwmsg.tif,24,0.0666666666666667,0.0666666666666667,0.916666666666667,2381.57875225,2382.4965225,13,2381.645507041,2381.711853916,2382.518860791,2383.42891575,1,0.917770250000103
124,15,9,categorization,0,bathroom,SHINEd_sun_anryaplzeujmzfkd.tif,39,0.0666666666666667,0.0666666666666667,1.05,2383.440697291,2384.214315,13,2383.5034805,2383.563600166,2384.232273666,2385.275663208,1,0.773617709000064
124,16,9,categorization,0,bathroom,SHINEd_sun_aavhrsfjbserjtht.tif,13,0.0666666666666667,0.0666666666666667,1.53333333333333,2385.287643958,2385.861407166,13,2385.352652791,2385.418296958,2385.891588375,2387.41831575,1,0.573763207999946
124,17,9,categorization,0,kitchen,SHINEd_sun_aqeaevwwwjoqhzvl.tif,101,0.0666666666666667,0.0666666666666667,1.11666666666667,2387.430868916,2388.119855333,9,2387.496162458,2387.563074916,2388.135847166,2389.245900041,1,0.688986417000251
124,18,9,categorization,0,kitchen,SHINEd_sun_amjjdeyrggfqgmom.tif,100,0.0666666666666667,0.0666666666666667,1.05,2389.266243458,2390.045450541,9,2389.332976166,2389.398439875,2390.050925,2391.094301791,1,0.779207082999619
124,19,9,categorization,0,kitchen,SHINEd_sun_adgqasybjyktddhj.tif,78,0.0666666666666667,0.0666666666666667,1.66666666666667,2391.106685583,2391.741158916,9,2391.171402791,2391.23753125,2391.76082675,2393.420876416,1,0.634473333000187
124,20,9,categorization,0,bathroom,SHINEd_sun_apynckhmoftszqoq.tif,47,0.0666666666666667,0.0666666666666667,1.98333333333333,2393.4386165,2394.169862708,13,2393.505617458,2393.571000541,2394.194698333,2396.171419708,1,0.731246207999902
124,21,9,categorization,0,kitchen,SHINEd_sun_aadbddgrdsjugojn.tif,64,0.0666666666666667,0.0666666666666667,1.06666666666667,2396.188850916,2397.477705041,9,2396.256410416,2396.321282416,2397.49044575,2398.550503958,1,1.28885412499994
124,22,9,categorization,0,bathroom,SHINEd_sun_apmqjbnwghzuhhzh.tif,46,0.0666666666666667,0.0666666666666667,1.31666666666667,2398.565307958,2399.247577333,13,2398.63072,2398.694996666,2399.267916541,2400.57796225,1,0.682269375000033
