sub_num,trial,block,task,is_practice,category,image,texture,duration,mask_dur,jitter,stim_time,time_of_resp,trial_response,mask_time,fix_time,jit_onset,trial_end,trial_accuracy,RT
102,1,0,complexity,1,bathroom,bathroom_practice3.tif,223,1.5,0,1.56666666666667,19827.900816291,19833.660299291,3,NaN,19833.667103291,19833.685825125,19835.246025541,NaN,NaN
102,2,0,complexity,1,bathroom,bathroom_practice5.tif,225,1.5,0,1.1,19835.264616291,19839.381226916,6,NaN,19839.386699458,19839.405251541,19840.498621625,NaN,NaN
102,3,0,complexity,1,bathroom,bathroom_practice2.tif,222,1.5,0,1.51666666666667,19840.509432041,19843.925292958,7,NaN,19843.931052291,19843.9494785,19845.459511875,NaN,NaN
102,4,0,complexity,1,bathroom,bathroom_practice4.tif,224,1.5,0,1.15,19845.474310625,19848.988604083,1,NaN,19848.994699166,19849.013120083,19850.156485666,NaN,NaN
102,5,0,complexity,1,bathroom,bathroom_practice1.tif,221,1.5,0,1.26666666666667,19850.167601875,19853.045007875,1,NaN,19853.050404208,19853.068799208,19854.328833458,NaN,NaN
102,1,1,complexity,0,bathroom,sun_abapwbhyhkfixyex.tif,124,1.5,0,0.75,19858.789708,19861.877652416,3,NaN,19861.886003583,19861.905184916,19862.648524,NaN,NaN
102,2,1,complexity,0,bathroom,sun_akiytfaagpdsphgz.tif,141,1.5,0,1.28333333333333,19862.653089,19866.613050208,4,NaN,19866.618608666,19866.637303791,19867.914007458,NaN,NaN
102,3,1,complexity,0,bathroom,sun_axxbkopsgyouuebh.tif,168,1.5,0,1.76666666666667,19867.933056375,19870.748122333,2,NaN,19870.754002833,19870.772397916,19872.532443791,NaN,NaN
102,4,1,complexity,0,bathroom,sun_abjtwfukuwddzted.tif,125,1.5,0,1.28333333333333,19872.548648416,19875.896638875,2,NaN,19875.925294708,19875.948185958,19877.22489075,NaN,NaN
102,5,1,complexity,0,bathroom,sun_amzlamotzwfkwjco.tif,147,1.5,0,1.8,19877.243096375,19882.444245208,3,NaN,19882.450198375,19882.468457833,19884.261829125,NaN,NaN
102,6,1,complexity,0,bathroom,sun_aofnryafpsjimzsb.tif,150,1.5,0,0.716666666666667,19884.2824425,19887.344007541,6,NaN,19887.372945083,19887.396280208,19888.106285708,NaN,NaN
102,7,1,complexity,0,bathroom,sun_asfwthctfqerjvxr.tif,159,1.5,0,1,19888.110959791,19892.396481458,6,NaN,19892.402111416,19892.4204565,19893.413795333,NaN,NaN
102,8,1,complexity,0,bathroom,sun_apjevzvycyhuqghb.tif,153,1.5,0,1.21666666666667,19893.419878833,19896.660203375,7,NaN,19896.666266833,19896.684723166,19897.894756208,NaN,NaN
102,9,1,complexity,0,bathroom,sun_aapitsgbtktqubfy.tif,122,1.5,0,1.55,19897.910867666,19901.356712291,2,NaN,19901.362195208,19901.380690625,19902.924065375,NaN,NaN
102,10,1,complexity,0,bathroom,sun_aclfzgynxzxlbepz.tif,129,1.5,0,2,19902.941464083,19906.100393833,2,NaN,19906.106103166,19906.124398125,19908.117747375,NaN,NaN
102,11,1,complexity,0,bathroom,sun_aqrpegblszgcoujh.tif,158,1.5,0,0.716666666666667,19908.127424166,19911.225120375,3,NaN,19911.256215541,19911.279945916,19911.989951166,NaN,NaN
102,12,1,complexity,0,bathroom,sun_awnqiikzaispgmwo.tif,166,1.5,0,0.933333333333333,19912.003196916,19916.04485975,2,NaN,19916.05050925,19916.068848625,19916.995520125,NaN,NaN
102,13,1,complexity,0,bathroom,sun_axyrejkiiaqiurjk.tif,169,1.5,0,1.58333333333333,19917.000135416,19920.620014916,6,NaN,19920.626208291,19920.644514958,19922.221232166,NaN,NaN
102,14,1,complexity,0,bathroom,sun_aspsyogrekjtfozg.tif,160,1.5,0,0.9,19922.241034416,19925.684882291,6,NaN,19925.69049375,19925.708786666,19926.602124166,NaN,NaN
102,15,1,complexity,0,bathroom,sun_anryaplzeujmzfkd.tif,149,1.5,0,1.16666666666667,19926.606817875,19929.449516083,5,NaN,19929.47934975,19929.502799708,19930.662852791,NaN,NaN
102,16,1,complexity,0,bathroom,sun_ausgutylgojavyoq.tif,163,1.5,0,0.733333333333333,19930.67258975,19934.2524565,7,NaN,19934.258144333,19934.276527791,19935.003200375,NaN,NaN
102,17,1,complexity,0,bathroom,sun_ahijqszoswveeyji.tif,138,1.5,0,1.15,19935.007768208,19939.068187708,7,NaN,19939.074281916,19939.092654208,19940.236032,NaN,NaN
102,18,1,complexity,0,bathroom,sun_acgyywnybuveqsro.tif,128,1.5,0,1.01666666666667,19940.245772583,19943.627892291,2,NaN,19943.634146041,19943.652475416,19944.662511416,NaN,NaN
102,19,1,complexity,0,bathroom,sun_aggnnqpdorgxpvce.tif,131,1.5,0,0.883333333333333,19944.672670625,19947.724586708,6,NaN,19947.730076333,19947.748497583,19948.625167625,NaN,NaN
102,20,1,complexity,0,bathroom,sun_avhrdrntsqrjzccq.tif,165,1.5,0,1.65,19948.62955675,19952.244425916,6,NaN,19952.249892666,19952.268300208,19953.911688166,NaN,NaN
102,21,1,complexity,0,bathroom,sun_aghyqhbptboemmoq.tif,133,1.5,0,0.75,19953.926871041,19956.869634125,1,NaN,19956.8994125,19956.921357125,19957.664695583,NaN,NaN
102,22,1,complexity,0,bathroom,sun_acegryoqftbzowsg.tif,127,1.5,0,1.28333333333333,19957.669385666,19963.755778458,4,NaN,19963.762721041,19963.781366125,19965.058086083,NaN,NaN
102,23,1,complexity,0,bathroom,sun_ambriybtogmepttm.tif,146,1.5,0,1.25,19965.076927875,19968.292185041,4,NaN,19968.297831791,19968.316257166,19969.559643166,NaN,NaN
102,24,1,complexity,0,bathroom,sun_agrwbmhcpmfuwmsg.tif,134,1.5,0,0.833333333333333,19969.578165666,19972.596191166,3,NaN,19972.601859208,19972.620390208,19973.447062583,NaN,NaN
102,25,1,complexity,0,bathroom,sun_acduarbnmmoglmiv.tif,126,1.5,0,1.05,19973.451608791,19977.347806041,4,NaN,19977.353761166,19977.372061583,19978.415426083,NaN,NaN
102,1,2,complexity,0,bathroom,sun_apkxzenqapsujocq.tif,155,1.5,0,0.95,19982.763902333,19985.310124333,1,NaN,19985.339195291,19985.362906708,19986.306245875,NaN,NaN
102,2,2,complexity,0,bathroom,sun_afcoljnjfoxjtgja.tif,130,1.5,0,1.55,19986.311088916,19990.395783291,4,NaN,19990.401701333,19990.420228541,19991.963612625,NaN,NaN
102,3,2,complexity,0,bathroom,sun_agyqfjcfkdcydepw.tif,135,1.5,0,1.2,19991.979789125,19995.151887,4,NaN,19995.180876666,19995.204342041,19996.397719708,NaN,NaN
102,4,2,complexity,0,bathroom,sun_apkruvsevgegsdwp.tif,154,1.5,0,1.86666666666667,19996.40937275,19999.236564916,2,NaN,19999.242019583,19999.260396291,20001.120450041,NaN,NaN
102,5,2,complexity,0,bathroom,sun_alotolagknyrgtsk.tif,145,1.5,0,1.66666666666667,20001.140767125,20005.403971041,6,NaN,20005.409597958,20005.42800275,20007.088058583,NaN,NaN
102,6,2,complexity,0,bathroom,sun_axldvoqbuvuggfmq.tif,167,1.5,0,1.35,20007.108645541,20011.555779541,2,NaN,20011.561620583,20011.580187458,20012.923562625,NaN,NaN
102,7,2,complexity,0,bathroom,sun_aoybiabnpadelefl.tif,151,1.5,0,1.11666666666667,20012.942345666,20015.548459375,1,NaN,20015.553962916,20015.572223583,20016.682275458,NaN,NaN
102,8,2,complexity,0,bathroom,sun_apmqjbnwghzuhhzh.tif,156,1.5,0,0.95,20016.691619083,20019.596384416,2,NaN,20019.601967916,20019.62148425,20020.564823333,NaN,NaN
102,9,2,complexity,0,bathroom,sun_aleqenyvunhactkl.tif,142,1.5,0,1.03333333333333,20020.586164333,20023.34505775,3,NaN,20023.373809625,20023.397132166,20024.423838708,NaN,NaN
102,10,2,complexity,0,bathroom,sun_aunuadmjocsddsrl.tif,162,1.5,0,1.01666666666667,20024.433902166,20027.459899416,2,NaN,20027.465541375,20027.483898208,20028.49393025,NaN,NaN
102,11,2,complexity,0,bathroom,sun_agguqiubmwhqqunb.tif,132,1.5,0,1.81666666666667,20028.503224166,20031.404049125,2,NaN,20031.409572375,20031.427951166,20033.237991166,NaN,NaN
102,12,2,complexity,0,bathroom,sun_alkosphxlxwjwgjd.tif,144,1.5,0,1.8,20033.2585665,20036.405869458,4,NaN,20036.435294708,20036.458623458,20038.252009875,NaN,NaN
102,13,2,complexity,0,bathroom,sun_atstyziqcmkahyxk.tif,161,1.5,0,1.26666666666667,20038.270080916,20043.196185458,1,NaN,20043.203473333,20043.222019958,20044.482069708,NaN,NaN
102,14,2,complexity,0,bathroom,sun_azqyogdvyhahyram.tif,170,1.5,0,1.66666666666667,20044.497645333,20047.468000958,1,NaN,20047.473406708,20047.491711166,20049.151759333,NaN,NaN
102,15,2,complexity,0,bathroom,sun_aljolscmmzydegqp.tif,143,1.5,0,1.93333333333333,20049.169690291,20052.231407208,3,NaN,20052.260366166,20052.283682958,20054.210383875,NaN,NaN
102,16,2,complexity,0,bathroom,sun_ahcvzmoyaycdoftf.tif,137,1.5,0,1.75,20054.227481208,20057.33247675,1,NaN,20057.361830916,20057.382938625,20059.126311833,NaN,NaN
102,17,2,complexity,0,bathroom,sun_aavhrsfjbserjtht.tif,123,1.5,0,0.766666666666667,20059.143670291,20062.102626375,3,NaN,20062.118793958,20062.140091916,20062.900096208,NaN,NaN
102,18,2,complexity,0,bathroom,sun_ajlawzvmubibwbpy.tif,140,1.5,0,1.43333333333333,20062.904912,20065.799063291,3,NaN,20065.827964,20065.851273041,20067.277986333,NaN,NaN
102,19,2,complexity,0,bathroom,sun_ahqjwnzgolcaoidx.tif,139,1.5,0,0.916666666666667,20067.294230166,20070.27599425,4,NaN,20070.281496,20070.300000083,20071.210004083,NaN,NaN
102,20,2,complexity,0,bathroom,labelme_sfxiulhjbhlyiyt.tif,121,1.5,0,0.766666666666667,20071.21456625,20074.061491708,2,NaN,20074.087519166,20074.108790833,20074.868795333,NaN,NaN
102,21,2,complexity,0,bathroom,sun_apynckhmoftszqoq.tif,157,1.5,0,0.783333333333333,20074.873456583,20077.813259125,1,NaN,20077.842010083,20077.865276083,20078.641947875,NaN,NaN
102,22,2,complexity,0,bathroom,sun_anhioqovhscjqqwb.tif,148,1.5,0,1.31666666666667,20078.646639375,20081.9472825,3,NaN,20081.954488875,20081.972862083,20083.2829035,NaN,NaN
102,23,2,complexity,0,bathroom,sun_auzqhkafidnkrwmo.tif,164,1.5,0,1.1,20083.300013666,20086.3317705,6,NaN,20086.337436416,20086.355730166,20087.449111625,NaN,NaN
102,24,2,complexity,0,bathroom,sun_ahaulkltgpkeeemi.tif,136,1.5,0,1.26666666666667,20087.457135833,20091.595655083,2,NaN,20091.601448375,20091.619872458,20092.879920458,NaN,NaN
102,25,2,complexity,0,bathroom,sun_apeeialkgkuxddgh.tif,152,1.5,0,0.933333333333333,20092.895473083,20095.460077916,1,NaN,20095.46559625,20095.483863291,20096.410535291,NaN,NaN
