sub_num,trial,block,task,is_practice,category,image,texture,duration,mask_dur,jitter,stim_time,time_of_resp,trial_response,blank_time,mask_time,fix_time,jit_onset,trial_end,trial_accuracy,RT
115,1,0,categorization,1,bathroom,SHINEd_bathroom_practice1.tif,111,0.0666666666666667,0.0666666666666667,1.21666666666667,1212641.0561465,1212641.9470439,74,NaN,1212641.126562,1212641.193926,1212641.9632168,1212643.1782703,1,0.890897399978712
115,2,0,categorization,1,bathroom,SHINEd_bathroom_practice5.tif,115,0.0666666666666667,0.0666666666666667,1.36666666666667,1212643.1892323,1212644.3650134,74,NaN,1212643.2589331,1212643.3254109,1212644.3721026,1212645.7371647,1,1.17578110005707
115,3,0,categorization,1,kitchen,SHINEd_kitchen_practice1.tif,116,0.0666666666666667,0.0666666666666667,1.85,1212645.7462022,1212646.6595027,70,NaN,1212645.8160096,1212645.8822391,1212646.6646516,1212648.5130399,1,0.913300500018522
115,4,0,categorization,1,bathroom,SHINEd_bathroom_practice4.tif,114,0.0666666666666667,0.0666666666666667,1.55,1212648.5180491,1212649.2602733,74,NaN,1212648.588264,1212648.6536285,1212649.2652519,1212650.8136278,1,0.742224200163037
115,5,0,categorization,1,bathroom,SHINEd_bathroom_practice2.tif,112,0.0666666666666667,0.0666666666666667,1.48333333333333,1212650.8189949,1212653.0914867,70,NaN,1212650.8884858,1212650.9549765,1212653.0983233,1212654.5801486,0,2.27249180013314
115,6,0,categorization,1,kitchen,SHINEd_kitchen_practice3.tif,118,0.0666666666666667,0.0666666666666667,1.15,1212654.5862735,1212655.3166283,70,NaN,1212654.6556107,1212654.7218428,1212655.3212366,1212656.4695742,1,0.730354799889028
115,7,0,categorization,1,kitchen,SHINEd_kitchen_practice2.tif,117,0.0666666666666667,0.0666666666666667,0.733333333333333,1212656.4742673,1212657.4203808,70,NaN,1212656.543566,1212656.6100167,1212657.4250689,1212658.1567417,1,0.946113500045612
115,8,0,categorization,1,kitchen,SHINEd_kitchen_practice4.tif,119,0.0666666666666667,0.0666666666666667,1.6,1212658.1611291,1212658.9394604,70,NaN,1212658.2303376,1212658.2967315,1212658.9445574,1212660.5428949,1,0.778331300010905
115,9,0,categorization,1,kitchen,SHINEd_kitchen_practice5.tif,120,0.0666666666666667,0.0666666666666667,0.716666666666667,1212660.5475609,1212661.5571258,70,NaN,1212660.6166916,1212660.6830617,1212661.5623875,1212662.2773913,1,1.00956490007229
115,10,0,categorization,1,bathroom,SHINEd_bathroom_practice3.tif,113,0.0666666666666667,0.0666666666666667,1.21666666666667,1212662.2819949,1212663.5881929,74,NaN,1212662.3512776,1212662.4175635,1212663.592373,1212664.8073793,1,1.30619799997658
115,1,1,categorization,0,bathroom,SHINEd_sun_axyrejkiiaqiurjk.tif,59,0.0666666666666667,0.0666666666666667,1.23333333333333,1212671.8438518,1212673.2033632,70,NaN,1212671.9134175,1212671.9807767,1212673.2105699,1212674.4422427,0,1.35951139987446
115,2,1,categorization,0,kitchen,SHINEd_sun_ahljzhgcdpomplvg.tif,91,0.0666666666666667,0.0666666666666667,0.783333333333333,1212674.4469405,1212675.2114358,70,NaN,1212674.5162304,1212674.5825508,1212675.2159878,1212675.9976607,1,0.764495299896225
115,3,1,categorization,0,kitchen,SHINEd_sun_auticobqsbwgoppi.tif,103,0.0666666666666667,0.0666666666666667,0.75,1212676.002288,1212676.7474999,70,NaN,1212676.0716127,1212676.1377946,1212676.7528213,1212677.5011592,1,0.74521189997904
115,4,1,categorization,0,kitchen,SHINEd_sun_aypmqwcualkenuoe.tif,108,0.0666666666666667,0.0666666666666667,1.23333333333333,1212677.5058502,1212678.6435285,70,NaN,1212677.5751119,1212677.6414134,1212678.6482325,1212679.879903,1,1.13767830003053
115,5,1,categorization,0,bathroom,SHINEd_sun_apeeialkgkuxddgh.tif,42,0.0666666666666667,0.0666666666666667,1.13333333333333,1212679.884398,1212680.5084208,74,NaN,1212679.9537346,1212680.0201602,1212680.5131765,1212681.6448473,1,0.624022800009698
115,6,1,categorization,0,bathroom,SHINEd_sun_aghyqhbptboemmoq.tif,23,0.0666666666666667,0.0666666666666667,0.95,1212681.6492797,1212682.3722834,74,NaN,1212681.7213288,1212681.7852037,1212682.3769315,1212683.3252715,1,0.723003700142726
115,7,1,categorization,0,bathroom,SHINEd_sun_awnqiikzaispgmwo.tif,56,0.0666666666666667,0.0666666666666667,0.733333333333333,1212683.3299697,1212684.2593956,74,NaN,1212683.3992817,1212683.4658368,1212684.2639397,1212684.9956106,1,0.929425900103524
115,8,1,categorization,0,kitchen,SHINEd_sun_ahspylgoovwmwvgk.tif,93,0.0666666666666667,0.0666666666666667,1.31666666666667,1212685.0002154,1212685.740351,70,NaN,1212685.0696053,1212685.1363031,1212685.744991,1212687.0599963,1,0.74013560009189
115,9,1,categorization,0,kitchen,SHINEd_sun_axyyrmzcupyhlivc.tif,106,0.0666666666666667,0.0666666666666667,0.8,1212687.0646679,1212687.9712517,70,NaN,1212687.1339674,1212687.2003552,1212687.976954,1212688.7752934,1,0.906583799980581
115,10,1,categorization,0,kitchen,SHINEd_sun_abrcnpqqhmjwekyf.tif,73,0.0666666666666667,0.0666666666666667,0.716666666666667,1212688.7798639,1212689.5471785,74,NaN,1212688.850369,1212688.9154253,1212689.5529624,1212690.2679681,0,0.767314600059763
115,11,1,categorization,0,bathroom,SHINEd_sun_aunuadmjocsddsrl.tif,52,0.0666666666666667,0.0666666666666667,0.916666666666667,1212690.2725647,1212690.9643579,74,NaN,1212690.3418569,1212690.4081238,1212690.9689872,1212691.8839931,1,0.691793199861422
115,12,1,categorization,0,kitchen,SHINEd_sun_ajcbwwvdlsvjyzje.tif,95,0.0666666666666667,0.0666666666666667,0.95,1212691.88838,1212692.804412,70,NaN,1212691.9586191,1212692.0248717,1212692.8090102,1212693.7573484,1,0.916032000211999
115,13,1,categorization,0,bathroom,SHINEd_sun_apkxzenqapsujocq.tif,45,0.0666666666666667,0.0666666666666667,0.833333333333333,1212693.7618222,1212694.5954285,74,NaN,1212693.8310824,1212693.8973426,1212694.599887,1212695.431577,1,0.833606300177053
115,14,1,categorization,0,bathroom,SHINEd_sun_apynckhmoftszqoq.tif,47,0.0666666666666667,0.0666666666666667,0.75,1212695.4363676,1212696.1086106,74,NaN,1212695.5057366,1212695.5719024,1212696.1134299,1212696.8617686,1,0.672243000008166
115,15,1,categorization,0,kitchen,SHINEd_sun_azmutvzbxypaceni.tif,110,0.0666666666666667,0.0666666666666667,1.53333333333333,1212696.86702,1212697.5873979,70,NaN,1212696.9378752,1212697.0034075,1212697.5923347,1212699.1240051,1,0.720377899939194
115,16,1,categorization,0,bathroom,SHINEd_sun_ahaulkltgpkeeemi.tif,26,0.0666666666666667,0.0666666666666667,1.05,1212699.1287082,1212700.9160542,74,NaN,1212699.1979988,1212699.2643417,1212700.9201821,1212701.9685203,1,1.78734599985182
115,17,1,categorization,0,bathroom,SHINEd_sun_ahcvzmoyaycdoftf.tif,27,0.0666666666666667,0.0666666666666667,0.9,1212701.9730566,1212702.8041583,74,NaN,1212702.0424302,1212702.1094419,1212702.8085932,1212703.7069331,1,0.831101699965075
115,18,1,categorization,0,kitchen,SHINEd_sun_acxkpeoqbwcxfvip.tif,77,0.0666666666666667,0.0666666666666667,1.18333333333333,1212703.7113447,1212705.700896,70,NaN,1212703.7807539,1212703.8470178,1212705.7050746,1212706.8867449,1,1.98955129995011
115,19,1,categorization,0,kitchen,SHINEd_sun_abdxkyyxwfskuaqb.tif,70,0.0666666666666667,0.0666666666666667,0.9,1212706.8909772,1212707.7954884,70,NaN,1212706.9608656,1212707.0269468,1212707.8006486,1212708.6989882,1,0.904511200031266
115,20,1,categorization,0,kitchen,SHINEd_sun_aarfiyshqohlwkmo.tif,67,0.0666666666666667,0.0666666666666667,1.66666666666667,1212708.7036036,1212709.2922368,70,NaN,1212708.7730726,1212708.839136,1212709.2964536,1212710.9614587,1,0.588633200153708
115,21,1,categorization,0,kitchen,SHINEd_labelme_brsyyvweiuaazfr.tif,61,0.0666666666666667,0.0666666666666667,1.13333333333333,1212710.9656972,1212711.6521159,70,NaN,1212711.0357713,1212711.1037206,1212711.6562013,1212712.7878739,1,0.686418700031936
115,22,1,categorization,0,bathroom,SHINEd_sun_acduarbnmmoglmiv.tif,16,0.0666666666666667,0.0666666666666667,1.3,1212712.7923782,1212713.5398284,74,NaN,1212712.8643665,1212712.9279483,1212713.5439224,1212714.8422604,1,0.747450199909508
115,23,1,categorization,0,bathroom,SHINEd_labelme_sfxiulhjbhlyiyt.tif,11,0.0666666666666667,0.0666666666666667,1.93333333333333,1212714.846843,1212715.4434449,74,NaN,1212714.9164915,1212714.9823125,1212715.4482805,1212717.3799529,1,0.596601899946108
115,24,1,categorization,0,bathroom,SHINEd_sun_ahijqszoswveeyji.tif,28,0.0666666666666667,0.0666666666666667,1,1212717.3845872,1212718.331736,70,NaN,1212717.4538525,1212717.5201806,1212718.3359668,1212719.3343053,0,0.947148800129071
115,25,1,categorization,0,kitchen,SHINEd_sun_aapllqyqlykszopd.tif,66,0.0666666666666667,0.0666666666666667,0.883333333333333,1212719.3387872,1212719.9874526,70,NaN,1212719.4082519,1212719.4743205,1212719.9933796,1212720.8750499,1,0.648665399989113
115,26,1,categorization,0,bathroom,SHINEd_sun_apjevzvycyhuqghb.tif,43,0.0666666666666667,0.0666666666666667,1.95,1212720.8797525,1212721.627467,70,NaN,1212720.9490221,1212721.0158455,1212721.6322963,1212723.5806471,0,0.747714499942958
115,27,1,categorization,0,kitchen,SHINEd_sun_aeqdocilnnpuvuhx.tif,83,0.0666666666666667,0.0666666666666667,1.25,1212723.585758,1212724.2594892,70,NaN,1212723.6551123,1212723.7212146,1212724.2648456,1212725.5131833,1,0.673731200164184
115,28,1,categorization,0,kitchen,SHINEd_sun_ahpczsiumwwocjkv.tif,92,0.0666666666666667,0.0666666666666667,1.95,1212725.5176545,1212726.1882992,70,NaN,1212725.5868788,1212725.6533716,1212726.1927902,1212728.1411281,1,0.67064470006153
115,29,1,categorization,0,bathroom,SHINEd_sun_aofnryafpsjimzsb.tif,40,0.0666666666666667,0.0666666666666667,1.91666666666667,1212728.1459231,1212729.1954857,74,NaN,1212728.2151694,1212728.281406,1212729.2006103,1212731.1156158,1,1.04956259997562
115,30,1,categorization,0,kitchen,SHINEd_sun_abpwyqmlzafvklqo.tif,72,0.0666666666666667,0.0666666666666667,1.41666666666667,1212731.1199414,1212731.8193573,70,NaN,1212731.1892238,1212731.2554138,1212731.8243747,1212733.2393939,1,0.699415900046006
115,31,1,categorization,0,bathroom,SHINEd_sun_aoybiabnpadelefl.tif,41,0.0666666666666667,0.0666666666666667,0.716666666666667,1212733.244092,1212734.4514597,74,NaN,1212733.3141821,1212733.3795743,1212734.4561133,1212735.1711175,1,1.20736770005897
115,32,1,categorization,0,kitchen,SHINEd_sun_akcjzhbbjlbogpdi.tif,98,0.0666666666666667,0.0666666666666667,1.28333333333333,1212735.1757275,1212735.9554157,70,NaN,1212735.2450256,1212735.3113918,1212735.960144,1212737.2418152,1,0.779688199982047
115,33,1,categorization,0,bathroom,SHINEd_sun_azqyogdvyhahyram.tif,60,0.0666666666666667,0.0666666666666667,0.9,1212737.2462705,1212737.9090314,74,NaN,1212737.315597,1212737.3818358,1212737.9136137,1212738.8119519,1,0.662760900100693
115,34,1,categorization,0,kitchen,SHINEd_sun_abdenxonkemggwsq.tif,69,0.0666666666666667,0.0666666666666667,0.8,1212738.8179346,1212739.6274561,70,NaN,1212738.8878334,1212738.9535816,1212739.634282,1212740.4326213,1,0.809521500021219
115,35,1,categorization,0,kitchen,SHINEd_sun_avszsnwsbuqfgzbn.tif,104,0.0666666666666667,0.0666666666666667,1.01666666666667,1212740.4371241,1212741.1554351,70,NaN,1212740.5065028,1212740.5734209,1212741.1606748,1212742.1756799,1,0.718310999916866
115,36,1,categorization,0,bathroom,SHINEd_sun_alotolagknyrgtsk.tif,35,0.0666666666666667,0.0666666666666667,0.85,1212742.1801811,1212742.9477853,74,NaN,1212742.2496628,1212742.315791,1212742.9521343,1212743.800472,1,0.767604199936613
115,37,1,categorization,0,bathroom,SHINEd_sun_axldvoqbuvuggfmq.tif,57,0.0666666666666667,0.0666666666666667,1.51666666666667,1212743.8051382,1212744.5314524,74,NaN,1212743.874576,1212743.9406938,1212744.5368552,1212746.0518588,1,0.726314199855551
115,38,1,categorization,0,kitchen,SHINEd_labelme_kxvouciolcpqplr.tif,62,0.0666666666666667,0.0666666666666667,1.83333333333333,1212746.0579467,1212747.7881384,74,NaN,1212746.1290449,1212746.1948374,1212747.7923617,1212749.6240342,0,1.7301917001605
115,39,1,categorization,0,bathroom,SHINEd_sun_aqrpegblszgcoujh.tif,48,0.0666666666666667,0.0666666666666667,0.716666666666667,1212749.628483,1212750.2674596,74,NaN,1212749.7003166,1212749.7650691,1212750.2726968,1212750.9877008,1,0.638976600021124
115,40,1,categorization,0,bathroom,SHINEd_sun_aspsyogrekjtfozg.tif,50,0.0666666666666667,0.0666666666666667,0.9,1212750.9922231,1212751.6850232,74,NaN,1212751.061512,1212751.1277546,1212751.68908,1212752.5874178,1,0.69280009996146
115,41,1,categorization,0,kitchen,SHINEd_sun_acwjdupvyjsugpay.tif,76,0.0666666666666667,0.0666666666666667,0.916666666666667,1212752.5917974,1212754.237835,74,NaN,1212752.661207,1212752.7292917,1212754.24163,1212755.156636,0,1.64603760000318
115,42,1,categorization,0,kitchen,SHINEd_sun_aehawpgmrlhlvcow.tif,81,0.0666666666666667,0.0666666666666667,0.816666666666667,1212755.1613019,1212756.3092173,70,NaN,1212755.2306175,1212755.2969254,1212756.3133311,1212757.1283353,1,1.14791540009901
115,43,1,categorization,0,bathroom,SHINEd_sun_agguqiubmwhqqunb.tif,22,0.0666666666666667,0.0666666666666667,1.88333333333333,1212757.1328547,1212758.1242095,70,NaN,1212757.2021633,1212757.2683077,1212758.1287244,1212760.0103953,0,0.991354799829423
115,44,1,categorization,0,bathroom,SHINEd_sun_aavhrsfjbserjtht.tif,13,0.0666666666666667,0.0666666666666667,0.9,1212760.014885,1212760.70831,74,NaN,1212760.0842307,1212760.1503997,1212760.7126392,1212761.6109775,1,0.693424999946728
115,45,1,categorization,0,kitchen,SHINEd_sun_akchetnepxlcxhsu.tif,97,0.0666666666666667,0.0666666666666667,1,1212761.615404,1212762.7816672,70,NaN,1212761.6847197,1212761.7510258,1212762.7859381,1212763.7842759,1,1.16626319987699
115,46,1,categorization,0,kitchen,SHINEd_sun_ahywdevtimnqcsln.tif,94,0.0666666666666667,0.0666666666666667,0.733333333333333,1212763.7887329,1212764.6438304,70,NaN,1212763.8596438,1212763.9243808,1212764.6479188,1212765.3795892,1,0.855097499908879
115,47,1,categorization,0,bathroom,SHINEd_sun_atstyziqcmkahyxk.tif,51,0.0666666666666667,0.0666666666666667,0.883333333333333,1212765.3839017,1212766.3640522,74,NaN,1212765.4533564,1212765.5194858,1212766.3681665,1212767.24985,1,0.980150500079617
115,48,1,categorization,0,bathroom,SHINEd_sun_apkruvsevgegsdwp.tif,44,0.0666666666666667,0.0666666666666667,1.73333333333333,1212767.2552067,1212768.1394406,70,NaN,1212767.3249788,1212767.3908007,1212768.1442658,1212769.8759395,0,0.884233900113031
115,49,1,categorization,0,bathroom,SHINEd_sun_ambriybtogmepttm.tif,36,0.0666666666666667,0.0666666666666667,1.91666666666667,1212769.880287,1212770.7322225,74,NaN,1212769.9498772,1212770.0169398,1212770.7367275,1212772.6517322,1,0.851935500046238
115,50,1,categorization,0,kitchen,SHINEd_sun_agubuxuukhzyzpdp.tif,88,0.0666666666666667,0.0666666666666667,1.35,1212772.6562459,1212773.5643163,74,NaN,1212772.7255484,1212772.7916393,1212773.5688214,1212774.9171602,0,0.908070399891585
115,1,2,categorization,0,kitchen,SHINEd_sun_amjjdeyrggfqgmom.tif,99,0.0666666666666667,0.0666666666666667,0.95,1212806.3385195,1212807.3873647,70,NaN,1212806.4080569,1212806.4740112,1212807.3927298,1212808.3410672,1,1.04884519986808
115,2,2,categorization,0,bathroom,SHINEd_sun_aggnnqpdorgxpvce.tif,21,0.0666666666666667,0.0666666666666667,0.75,1212808.345635,1212809.187458,74,NaN,1212808.4149102,1212808.4810289,1212809.1923129,1212809.9407065,1,0.841822999995202
115,3,2,categorization,0,bathroom,SHINEd_sun_aclfzgynxzxlbepz.tif,19,0.0666666666666667,0.0666666666666667,1.68333333333333,1212809.945575,1212810.6674081,74,NaN,1212810.0152605,1212810.0811317,1212810.6719669,1212812.3536386,1,0.721833100076765
115,4,2,categorization,0,kitchen,SHINEd_sun_admlmbcdswaszruo.tif,79,0.0666666666666667,0.0666666666666667,0.816666666666667,1212812.3581056,1212813.1240484,70,NaN,1212812.4273837,1212812.4940356,1212813.1280282,1212813.9430343,1,0.765942799858749
115,5,2,categorization,0,kitchen,SHINEd_sun_aenotlpyftoioydp.tif,82,0.0666666666666667,0.0666666666666667,0.916666666666667,1212813.9478187,1212814.8194293,70,NaN,1212814.0172406,1212814.0832332,1212814.8240187,1212815.7390361,1,0.871610600035638
115,6,2,categorization,0,kitchen,SHINEd_sun_acgtpgfybqjmzeyw.tif,75,0.0666666666666667,0.0666666666666667,1.21666666666667,1212815.7441517,1212816.4514056,70,NaN,1212815.813384,1212815.8798065,1212816.4560072,1212817.6710126,1,0.707253899890929
115,7,2,categorization,0,bathroom,SHINEd_sun_acegryoqftbzowsg.tif,17,0.0666666666666667,0.0666666666666667,0.9,1212817.6755871,1212818.3329975,74,NaN,1212817.7447742,1212817.8110321,1212818.3371928,1212819.2355322,1,0.657410399988294
115,8,2,categorization,0,bathroom,SHINEd_sun_abapwbhyhkfixyex.tif,14,0.0666666666666667,0.0666666666666667,1.65,1212819.2398756,1212820.01941,74,NaN,1212819.3091967,1212819.3753414,1212820.024109,1212821.6724462,1,0.779534399975091
115,9,2,categorization,0,bathroom,SHINEd_sun_asfwthctfqerjvxr.tif,49,0.0666666666666667,0.0666666666666667,1.15,1212821.6769041,1212822.3874156,74,NaN,1212821.7462272,1212821.8125844,1212822.3922293,1212823.540568,1,0.710511500015855
115,10,2,categorization,0,kitchen,SHINEd_sun_ahdycvpopffkzzsu.tif,90,0.0666666666666667,0.0666666666666667,1.13333333333333,1212823.5452003,1212824.7800504,70,NaN,1212823.6144706,1212823.6807495,1212824.7842558,1212825.915928,1,1.23485010000877
115,11,2,categorization,0,bathroom,SHINEd_sun_acgyywnybuveqsro.tif,18,0.0666666666666667,0.0666666666666667,1.76666666666667,1212825.9204681,1212826.5641365,74,NaN,1212825.9896865,1212826.0560177,1212826.5684026,1212828.3334067,1,0.643668399890885
115,12,2,categorization,0,kitchen,SHINEd_labelme_rykdqxenmhulbdn.tif,63,0.0666666666666667,0.0666666666666667,1.8,1212828.338595,1212829.2593738,70,NaN,1212828.4076996,1212828.4739646,1212829.2642571,1212831.0625948,1,0.920778799802065
115,13,2,categorization,0,kitchen,SHINEd_sun_aggjlwcdjsjcaemh.tif,86,0.0666666666666667,0.0666666666666667,0.9,1212831.0671601,1212831.7648856,70,NaN,1212831.1369759,1212831.2026519,1212831.7695441,1212832.6678814,1,0.697725499980152
115,14,2,categorization,0,bathroom,SHINEd_sun_ausgutylgojavyoq.tif,53,0.0666666666666667,0.0666666666666667,0.716666666666667,1212832.6738716,1212833.3157858,74,NaN,1212832.7431524,1212832.8094993,1212833.3201753,1212834.0351791,1,0.641914200037718
115,15,2,categorization,0,kitchen,SHINEd_sun_abftihopvusyfakt.tif,71,0.0666666666666667,0.0666666666666667,1.36666666666667,1212834.0396043,1212834.7869913,70,NaN,1212834.1087693,1212834.175149,1212834.7929138,1212836.1579182,1,0.747387000126764
115,16,2,categorization,0,kitchen,SHINEd_sun_afuyedyxivkhecmu.tif,85,0.0666666666666667,0.0666666666666667,0.916666666666667,1212836.1622496,1212836.8601623,74,NaN,1212836.2314292,1212836.2978896,1212836.8643135,1212837.7793183,0,0.697912700008601
115,17,2,categorization,0,bathroom,SHINEd_sun_aapitsgbtktqubfy.tif,12,0.0666666666666667,0.0666666666666667,0.716666666666667,1212837.7840391,1212838.3802317,74,NaN,1212837.8542077,1212837.9197483,1212838.3848207,1212839.0998271,1,0.59619259997271
115,18,2,categorization,0,kitchen,SHINEd_sun_aymvwlarqodbwuoc.tif,107,0.0666666666666667,0.0666666666666667,0.766666666666667,1212839.1043761,1212839.8531569,74,NaN,1212839.1736298,1212839.2399914,1212839.8574982,1212840.6225039,0,0.748780800029635
115,19,2,categorization,0,bathroom,SHINEd_sun_auzqhkafidnkrwmo.tif,54,0.0666666666666667,0.0666666666666667,1.06666666666667,1212840.6269035,1212841.3473745,74,NaN,1212840.6961099,1212840.7624156,1212841.3529409,1212842.4179474,1,0.720471000066027
115,20,2,categorization,0,bathroom,SHINEd_sun_amzlamotzwfkwjco.tif,37,0.0666666666666667,0.0666666666666667,0.8,1212842.422682,1212843.4673921,74,NaN,1212842.4919704,1212842.5581419,1212843.4724407,1212844.2708,1,1.04471009992994
115,21,2,categorization,0,kitchen,SHINEd_sun_ayqymgxqhxxiykiw.tif,109,0.0666666666666667,0.0666666666666667,0.866666666666667,1212844.2755306,1212845.043367,70,NaN,1212844.3448336,1212844.4110908,1212845.0480143,1212845.913019,1,0.767836400074884
115,22,2,categorization,0,bathroom,SHINEd_sun_agrwbmhcpmfuwmsg.tif,24,0.0666666666666667,0.0666666666666667,1.48333333333333,1212845.9179125,1212846.5962264,74,NaN,1212845.9872521,1212846.0534742,1212846.6004248,1212848.0820958,1,0.678313900018111
115,23,2,categorization,0,kitchen,SHINEd_sun_aqeaevwwwjoqhzvl.tif,100,0.0666666666666667,0.0666666666666667,1.1,1212848.0881432,1212848.756115,70,NaN,1212848.1574818,1212848.2236577,1212848.7602805,1212849.8586203,1,0.667971800081432
115,24,2,categorization,0,bathroom,SHINEd_sun_abjtwfukuwddzted.tif,15,0.0666666666666667,0.0666666666666667,0.783333333333333,1212849.863443,1212850.5314004,74,NaN,1212849.932721,1212849.9989534,1212850.5378959,1212851.3195684,1,0.667957399971783
115,25,2,categorization,0,kitchen,SHINEd_sun_acfmftudsenhrfhy.tif,74,0.0666666666666667,0.0666666666666667,0.866666666666667,1212851.3243133,1212852.0354128,70,NaN,1212851.393696,1212851.459647,1212852.0404759,1212852.9054823,1,0.711099500069395
115,26,2,categorization,0,kitchen,SHINEd_sun_agzzivivdpnawacl.tif,89,0.0666666666666667,0.0666666666666667,1.83333333333333,1212852.9100334,1212853.4993835,74,NaN,1212852.9793374,1212853.0455039,1212853.5049656,1212855.3366364,0,0.589350100141019
115,27,2,categorization,0,kitchen,SHINEd_sun_aunzlwrbjumxhwdj.tif,102,0.0666666666666667,0.0666666666666667,0.7,1212855.3412898,1212856.0353329,70,NaN,1212855.4106193,1212855.4767944,1212856.0400496,1212856.7383881,1,0.694043100113049
115,28,2,categorization,0,bathroom,SHINEd_sun_anryaplzeujmzfkd.tif,39,0.0666666666666667,0.0666666666666667,1.33333333333333,1212856.7430872,1212857.4434758,70,NaN,1212856.8123694,1212856.8786502,1212857.4494014,1212858.7810735,0,0.700388600118458
115,29,2,categorization,0,kitchen,SHINEd_sun_aexklacwqwezaorf.tif,84,0.0666666666666667,0.0666666666666667,1.33333333333333,1212858.7857171,1212859.3393696,70,NaN,1212858.8550139,1212858.9212663,1212859.344052,1212860.6757228,1,0.553652500035241
115,30,2,categorization,0,bathroom,SHINEd_sun_aljolscmmzydegqp.tif,33,0.0666666666666667,0.0666666666666667,1.38333333333333,1212860.6801727,1212861.403422,74,NaN,1212860.7493423,1212860.8156361,1212861.40842,1212862.7900925,1,0.72324929991737
115,31,2,categorization,0,kitchen,SHINEd_sun_ajkqhtgcbgpcwrwn.tif,96,0.0666666666666667,0.0666666666666667,1.25,1212862.7947249,1212863.5804612,70,NaN,1212862.8639153,1212862.9302316,1212863.5864554,1212864.834793,1,0.785736300051212
115,32,2,categorization,0,bathroom,SHINEd_sun_afcoljnjfoxjtgja.tif,20,0.0666666666666667,0.0666666666666667,1.55,1212864.8392032,1212865.6200953,74,NaN,1212864.9085292,1212864.9747216,1212865.6246357,1212867.1729731,1,0.780892099952325
115,33,2,categorization,0,bathroom,SHINEd_sun_ajlawzvmubibwbpy.tif,30,0.0666666666666667,0.0666666666666667,1.61666666666667,1212867.1776951,1212868.1081541,74,NaN,1212867.2478884,1212867.3133326,1212868.1125937,1212869.7275988,1,0.9304589999374
115,34,2,categorization,0,bathroom,SHINEd_sun_avhrdrntsqrjzccq.tif,55,0.0666666666666667,0.0666666666666667,1.33333333333333,1212869.7320619,1212870.3473466,74,NaN,1212869.8019913,1212869.8676566,1212870.3521737,1212871.6838442,1,0.615284699946642
115,35,2,categorization,0,kitchen,SHINEd_sun_agorklincwxrdtga.tif,87,0.0666666666666667,0.0666666666666667,0.833333333333333,1212871.6885212,1212872.259915,70,NaN,1212871.7577973,1212871.823824,1212872.2640305,1212873.0957033,1,0.571393799968064
115,36,2,categorization,0,kitchen,SHINEd_sun_aamedkxepzlwuxes.tif,65,0.0666666666666667,0.0666666666666667,1.45,1212873.1002386,1212873.7408781,70,NaN,1212873.1695272,1212873.2357173,1212873.7451369,1212875.1934765,1,0.640639499993995
115,37,2,categorization,0,kitchen,SHINEd_sun_awcpdzzznmweyyhv.tif,105,0.0666666666666667,0.0666666666666667,0.933333333333333,1212875.1981227,1212875.8039345,70,NaN,1212875.2674593,1212875.3336682,1212875.8080081,1212876.7396785,1,0.605811800109223
115,38,2,categorization,0,kitchen,SHINEd_sun_aegoxogugdkwpmpj.tif,80,0.0666666666666667,0.0666666666666667,1.65,1212876.7441758,1212877.3886692,70,NaN,1212876.8135393,1212876.8796146,1212877.3929877,1212879.0413248,1,0.644493400119245
115,39,2,categorization,0,kitchen,SHINEd_sun_aadbddgrdsjugojn.tif,64,0.0666666666666667,0.0666666666666667,1.23333333333333,1212879.0457078,1212879.6200472,70,NaN,1212879.1150825,1212879.1816389,1212879.6240505,1212880.8557219,1,0.574339400045574
115,40,2,categorization,0,kitchen,SHINEd_sun_aaxxjlsuzvqlgylf.tif,68,0.0666666666666667,0.0666666666666667,0.766666666666667,1212880.8616011,1212881.4433805,70,NaN,1212880.9313894,1212880.9971668,1212881.4483739,1212882.2133801,1,0.581779399886727
115,41,2,categorization,0,bathroom,SHINEd_sun_alkosphxlxwjwgjd.tif,34,0.0666666666666667,0.0666666666666667,1.78333333333333,1212882.2178208,1212882.8441226,70,NaN,1212882.2889177,1212882.3533071,1212882.8485725,1212884.6302437,0,0.62630180013366
115,42,2,categorization,0,bathroom,SHINEd_sun_anhioqovhscjqqwb.tif,38,0.0666666666666667,0.0666666666666667,1.11666666666667,1212884.6348466,1212885.0913564,74,NaN,1212884.7040539,1212884.7704373,1212885.0959671,1212886.2109714,1,0.456509799929336
115,43,2,categorization,0,bathroom,SHINEd_sun_axxbkopsgyouuebh.tif,58,0.0666666666666667,0.0666666666666667,1.85,1212886.2153818,1212886.7560541,74,NaN,1212886.2853647,1212886.3509797,1212886.7603005,1212888.6086397,1,0.540672300150618
115,44,2,categorization,0,bathroom,SHINEd_sun_akiytfaagpdsphgz.tif,31,0.0666666666666667,0.0666666666666667,0.733333333333333,1212888.6148209,1212889.1954203,74,NaN,1212888.6842221,1212888.7512373,1212889.2004307,1212889.9321019,1,0.58059939998202
115,45,2,categorization,0,bathroom,SHINEd_sun_ahqjwnzgolcaoidx.tif,29,0.0666666666666667,0.0666666666666667,0.783333333333333,1212889.936627,1212890.5241674,74,NaN,1212890.0059737,1212890.0721716,1212890.5286036,1212891.3102769,1,0.587540399981663
115,46,2,categorization,0,bathroom,SHINEd_sun_aleqenyvunhactkl.tif,32,0.0666666666666667,0.0666666666666667,1.5,1212891.3147724,1212891.8440204,74,NaN,1212891.384054,1212891.4503738,1212891.8484962,1212893.3468341,1,0.529247999889776
115,47,2,categorization,0,bathroom,SHINEd_sun_apmqjbnwghzuhhzh.tif,46,0.0666666666666667,0.0666666666666667,0.733333333333333,1212893.3512239,1212893.924195,74,NaN,1212893.4221012,1212893.4867046,1212893.9290119,1212894.660684,1,0.572971099987626
115,48,2,categorization,0,kitchen,SHINEd_sun_auaiucuqpdausiva.tif,101,0.0666666666666667,0.0666666666666667,1.1,1212894.6649877,1212895.3960154,70,NaN,1212894.7362177,1212894.8020117,1212895.4007552,1212896.4991075,1,0.731027700006962
115,49,2,categorization,0,bathroom,SHINEd_sun_agyqfjcfkdcydepw.tif,25,0.0666666666666667,0.0666666666666667,1.6,1212896.5041826,1212897.2210664,74,NaN,1212896.5734364,1212896.6397123,1212897.2256655,1212898.8240033,1,0.716883799992502
115,50,2,categorization,0,kitchen,SHINEd_sun_adgqasybjyktddhj.tif,78,0.0666666666666667,0.0666666666666667,1.06666666666667,1212898.8287811,1212899.5338088,70,NaN,1212898.8980625,1212898.9644253,1212899.5391316,1212900.6041364,1,0.705027699936181
115,1,3,categorization,0,bathroom,SHINEd_sun_ausgutylgojavyoq.tif,53,0.0666666666666667,0.0666666666666667,0.85,1212906.7715369,1212907.4113831,74,NaN,1212906.8413943,1212906.9069695,1212907.4168577,1212908.2651972,1,0.639846200123429
115,2,3,categorization,0,bathroom,SHINEd_sun_axldvoqbuvuggfmq.tif,57,0.0666666666666667,0.0666666666666667,1.65,1212908.2697865,1212909.0839233,74,NaN,1212908.3397343,1212908.4057728,1212909.0882806,1212910.7366188,1,0.814136800123379
115,3,3,categorization,0,kitchen,SHINEd_sun_aymvwlarqodbwuoc.tif,107,0.0666666666666667,0.0666666666666667,0.783333333333333,1212910.7411909,1212911.9640299,74,NaN,1212910.8105828,1212910.8767341,1212911.9682348,1212912.749906,0,1.22283899993636
115,4,3,categorization,0,bathroom,SHINEd_sun_ahcvzmoyaycdoftf.tif,27,0.0666666666666667,0.0666666666666667,0.933333333333333,1212912.7542607,1212913.3792731,74,NaN,1212912.8236144,1212912.8898164,1212913.3841936,1212914.3158649,1,0.62501240009442
115,5,3,categorization,0,kitchen,SHINEd_sun_akchetnepxlcxhsu.tif,97,0.0666666666666667,0.0666666666666667,0.866666666666667,1212914.3205405,1212915.1393774,74,NaN,1212914.3897762,1212914.4560288,1212915.1450021,1212916.0100082,0,0.818836899939924
115,6,3,categorization,0,bathroom,SHINEd_sun_ahijqszoswveeyji.tif,28,0.0666666666666667,0.0666666666666667,1.11666666666667,1212916.0148282,1212916.8521931,74,NaN,1212916.0847518,1212916.1507587,1212916.8565254,1212917.9715297,1,0.837364899925888
115,7,3,categorization,0,kitchen,SHINEd_sun_aqeaevwwwjoqhzvl.tif,100,0.0666666666666667,0.0666666666666667,0.966666666666667,1212917.976242,1212918.5801122,70,NaN,1212918.0454892,1212918.111791,1212918.5845386,1212919.5495445,1,0.603870199993253
115,8,3,categorization,0,kitchen,SHINEd_sun_ahljzhgcdpomplvg.tif,91,0.0666666666666667,0.0666666666666667,1.78333333333333,1212919.5543901,1212920.2201342,70,NaN,1212919.6234722,1212919.6899241,1212920.224669,1212922.0063409,1,0.665744099998847
115,9,3,categorization,0,kitchen,SHINEd_labelme_brsyyvweiuaazfr.tif,61,0.0666666666666667,0.0666666666666667,1.55,1212922.011089,1212922.699719,70,NaN,1212922.0809752,1212922.1466934,1212922.7039375,1212924.2522766,1,0.688629999989644
115,10,3,categorization,0,kitchen,SHINEd_sun_abftihopvusyfakt.tif,71,0.0666666666666667,0.0666666666666667,1.41666666666667,1212924.2567202,1212924.9321646,70,NaN,1212924.32702,1212924.3922518,1212924.9368183,1212926.3518234,1,0.675444399937987
115,11,3,categorization,0,bathroom,SHINEd_sun_abapwbhyhkfixyex.tif,14,0.0666666666666667,0.0666666666666667,0.8,1212926.3564533,1212926.9879669,70,NaN,1212926.4258334,1212926.4919715,1212926.9920213,1212927.7903726,0,0.631513600004837
115,12,3,categorization,0,kitchen,SHINEd_sun_aaxxjlsuzvqlgylf.tif,68,0.0666666666666667,0.0666666666666667,1.28333333333333,1212927.7949464,1212928.5500092,70,NaN,1212927.864025,1212927.9307903,1212928.5546381,1212929.8363102,1,0.75506279990077
115,13,3,categorization,0,bathroom,SHINEd_sun_acgyywnybuveqsro.tif,18,0.0666666666666667,0.0666666666666667,1.66666666666667,1212929.8409166,1212930.62817,74,NaN,1212929.9100451,1212929.9765411,1212930.6323684,1212932.2973726,1,0.787253399845213
115,14,3,categorization,0,bathroom,SHINEd_sun_anhioqovhscjqqwb.tif,38,0.0666666666666667,0.0666666666666667,1.81666666666667,1212932.3020648,1212932.8993317,74,NaN,1212932.3711703,1212932.4374937,1212932.9042681,1212934.7192739,1,0.597266900120303
115,15,3,categorization,0,bathroom,SHINEd_sun_aqrpegblszgcoujh.tif,48,0.0666666666666667,0.0666666666666667,1.35,1212934.7238557,1212935.6121432,74,NaN,1212934.7931719,1212934.8593204,1212935.6167392,1212936.9650775,1,0.888287499779835
115,16,3,categorization,0,bathroom,SHINEd_sun_agguqiubmwhqqunb.tif,22,0.0666666666666667,0.0666666666666667,0.916666666666667,1212936.971148,1212937.9162691,74,NaN,1212937.0403575,1212937.1066827,1212937.9203499,1212938.8353553,1,0.94512109993957
115,17,3,categorization,0,kitchen,SHINEd_sun_auticobqsbwgoppi.tif,103,0.0666666666666667,0.0666666666666667,0.916666666666667,1212938.8400678,1212939.5313158,70,NaN,1212938.909962,1212938.9781588,1212939.5373437,1212940.4523493,1,0.691248000133783
115,18,3,categorization,0,bathroom,SHINEd_sun_aljolscmmzydegqp.tif,33,0.0666666666666667,0.0666666666666667,1.31666666666667,1212940.4569566,1212941.5102552,74,NaN,1212940.526173,1212940.5924614,1212941.5142316,1212942.8292371,1,1.05329860001802
115,19,3,categorization,0,kitchen,SHINEd_sun_abdenxonkemggwsq.tif,69,0.0666666666666667,0.0666666666666667,1.45,1212942.8338234,1212943.5170944,70,NaN,1212942.9030203,1212942.969972,1212943.5212044,1212944.9695427,1,0.683270999928936
115,20,3,categorization,0,bathroom,SHINEd_sun_abjtwfukuwddzted.tif,15,0.0666666666666667,0.0666666666666667,0.95,1212944.9749136,1212945.8438655,70,NaN,1212945.0447107,1212945.1104899,1212945.8485873,1212946.7969258,0,0.868951900163665
115,21,3,categorization,0,bathroom,SHINEd_sun_aavhrsfjbserjtht.tif,13,0.0666666666666667,0.0666666666666667,1.38333333333333,1212946.8014942,1212947.6433666,74,NaN,1212946.8706775,1212946.9370173,1212947.6482171,1212949.0299023,1,0.841872399905697
115,22,3,categorization,0,kitchen,SHINEd_sun_awcpdzzznmweyyhv.tif,105,0.0666666666666667,0.0666666666666667,1.16666666666667,1212949.0344342,1212949.783148,70,NaN,1212949.1080073,1212949.1704361,1212949.787441,1212950.9524462,1,0.748713799985126
115,23,3,categorization,0,kitchen,SHINEd_sun_aenotlpyftoioydp.tif,82,0.0666666666666667,0.0666666666666667,1.61666666666667,1212950.9585744,1212951.6433095,70,NaN,1212951.0282037,1212951.0968137,1212951.6478156,1212953.2628209,1,0.684735100017861
115,24,3,categorization,0,kitchen,SHINEd_sun_abpwyqmlzafvklqo.tif,72,0.0666666666666667,0.0666666666666667,1.38333333333333,1212953.2674083,1212954.0032574,70,NaN,1212953.3366837,1212953.4030771,1212954.0078995,1212955.3895705,1,0.735849099932238
115,25,3,categorization,0,bathroom,SHINEd_sun_anryaplzeujmzfkd.tif,39,0.0666666666666667,0.0666666666666667,1.78333333333333,1212955.3941536,1212956.0752488,70,NaN,1212955.4636017,1212955.5296202,1212956.0803571,1212957.862029,0,0.681095199892297
115,26,3,categorization,0,bathroom,SHINEd_sun_acduarbnmmoglmiv.tif,16,0.0666666666666667,0.0666666666666667,0.783333333333333,1212957.8666574,1212958.6195564,74,NaN,1212957.9368913,1212958.0022598,1212958.6236938,1212959.4053652,1,0.752898999955505
115,27,3,categorization,0,bathroom,SHINEd_sun_aofnryafpsjimzsb.tif,40,0.0666666666666667,0.0666666666666667,1.65,1212959.4101271,1212960.2760503,74,NaN,1212959.4813909,1212959.5456791,1212960.2818005,1212961.9301376,1,0.865923200035468
115,28,3,categorization,0,bathroom,SHINEd_labelme_sfxiulhjbhlyiyt.tif,11,0.0666666666666667,0.0666666666666667,1.86666666666667,1212961.9344163,1212962.6366194,74,NaN,1212962.0042505,1212962.0704988,1212962.6419079,1212964.5069362,1,0.702203100081533
115,29,3,categorization,0,bathroom,SHINEd_sun_aapitsgbtktqubfy.tif,12,0.0666666666666667,0.0666666666666667,1.23333333333333,1212964.5114944,1212965.1953506,74,NaN,1212964.5815559,1212964.6469729,1212965.2002466,1212966.4319184,1,0.683856199961156
115,30,3,categorization,0,bathroom,SHINEd_sun_ahaulkltgpkeeemi.tif,26,0.0666666666666667,0.0666666666666667,0.7,1212966.4362705,1212967.171921,74,NaN,1212966.5061808,1212966.5726867,1212967.1761461,1212967.8744838,1,0.735650499816984
115,31,3,categorization,0,kitchen,SHINEd_sun_aexklacwqwezaorf.tif,84,0.0666666666666667,0.0666666666666667,0.716666666666667,1212967.8788657,1212968.7723557,74,NaN,1212967.9481699,1212968.0143662,1212968.7767504,1212969.4917569,0,0.893489999929443
115,32,3,categorization,0,bathroom,SHINEd_sun_apynckhmoftszqoq.tif,47,0.0666666666666667,0.0666666666666667,1.05,1212969.4974278,1212970.1480492,74,NaN,1212969.5668566,1212969.6333488,1212970.1523233,1212971.2006631,1,0.650621399981901
115,33,3,categorization,0,bathroom,SHINEd_sun_alotolagknyrgtsk.tif,35,0.0666666666666667,0.0666666666666667,1.1,1212971.2052016,1212971.964244,74,NaN,1212971.2744536,1212971.3411096,1212971.9686635,1212973.0670006,1,0.759042399935424
115,34,3,categorization,0,kitchen,SHINEd_labelme_kxvouciolcpqplr.tif,62,0.0666666666666667,0.0666666666666667,1.13333333333333,1212973.0716072,1212973.8522077,74,NaN,1212973.1409049,1212973.2070208,1212973.8566821,1212974.9883564,0,0.780600500060245
115,35,3,categorization,0,kitchen,SHINEd_sun_aypmqwcualkenuoe.tif,108,0.0666666666666667,0.0666666666666667,1.38333333333333,1212974.9930028,1212975.9159441,70,NaN,1212975.0622407,1212975.1285788,1212975.9199076,1212977.3015783,1,0.922941299853846
115,36,3,categorization,0,bathroom,SHINEd_sun_avhrdrntsqrjzccq.tif,55,0.0666666666666667,0.0666666666666667,1.5,1212977.3061569,1212978.0362163,74,NaN,1212977.3754657,1212977.4415296,1212978.0409405,1212979.5392857,1,0.730059399968013
115,37,3,categorization,0,bathroom,SHINEd_sun_akiytfaagpdsphgz.tif,31,0.0666666666666667,0.0666666666666667,1.61666666666667,1212979.5444697,1212980.2842441,74,NaN,1212979.6152562,1212979.6806527,1212980.2887006,1212981.903705,1,0.739774400135502
115,38,3,categorization,0,kitchen,SHINEd_sun_ahspylgoovwmwvgk.tif,93,0.0666666666666667,0.0666666666666667,0.983333333333333,1212981.9081372,1212982.5480927,70,NaN,1212981.9772609,1212982.0436214,1212982.5522944,1212983.5339656,1,0.639955500140786
115,39,3,categorization,0,kitchen,SHINEd_sun_aarfiyshqohlwkmo.tif,67,0.0666666666666667,0.0666666666666667,1.3,1212983.5385538,1212984.4999049,70,NaN,1212983.6077648,1212983.6739518,1212984.5041257,1212985.8024647,1,0.961351100122556
115,40,3,categorization,0,kitchen,SHINEd_sun_aapllqyqlykszopd.tif,66,0.0666666666666667,0.0666666666666667,1.03333333333333,1212985.8070311,1212986.4838532,70,NaN,1212985.8763016,1212985.9424899,1212986.4881648,1212987.5198358,1,0.676822100067511
115,41,3,categorization,0,kitchen,SHINEd_sun_ahpczsiumwwocjkv.tif,92,0.0666666666666667,0.0666666666666667,1.45,1212987.5244037,1212988.3473176,70,NaN,1212987.5934127,1212987.6599008,1212988.354935,1212989.8032728,1,0.822913900017738
115,42,3,categorization,0,kitchen,SHINEd_sun_ahdycvpopffkzzsu.tif,90,0.0666666666666667,0.0666666666666667,1.23333333333333,1212989.8082216,1212990.493191,70,NaN,1212989.8779882,1212989.9437474,1212990.4973341,1212991.7290065,1,0.684969400055707
115,43,3,categorization,0,bathroom,SHINEd_sun_amzlamotzwfkwjco.tif,37,0.0666666666666667,0.0666666666666667,1.26666666666667,1212991.7335185,1212992.604284,74,NaN,1212991.803486,1212991.8692789,1212992.6085693,1212993.8735734,1,0.870765499770641
115,44,3,categorization,0,bathroom,SHINEd_sun_aleqenyvunhactkl.tif,32,0.0666666666666667,0.0666666666666667,1.03333333333333,1212993.8781478,1212994.868043,74,NaN,1212993.9473264,1212994.013689,1212994.8719878,1212995.90366,1,0.98989520012401
115,45,3,categorization,0,kitchen,SHINEd_sun_amjjdeyrggfqgmom.tif,99,0.0666666666666667,0.0666666666666667,1.31666666666667,1212995.9089981,1212996.6438681,70,NaN,1212995.9802442,1212996.0445859,1212996.6480832,1212997.9630992,1,0.734869999811053
115,46,3,categorization,0,kitchen,SHINEd_sun_avszsnwsbuqfgzbn.tif,104,0.0666666666666667,0.0666666666666667,1.7,1212997.9695701,1212998.6121694,70,NaN,1212998.0388763,1212998.1052251,1212998.6162767,1213000.3146146,1,0.642599300015718
115,47,3,categorization,0,kitchen,SHINEd_sun_abrcnpqqhmjwekyf.tif,73,0.0666666666666667,0.0666666666666667,1.35,1213000.3194307,1213001.1148316,70,NaN,1213000.3887345,1213000.4550719,1213001.1211227,1213002.4694625,1,0.795400900067762
115,48,3,categorization,0,bathroom,SHINEd_sun_alkosphxlxwjwgjd.tif,34,0.0666666666666667,0.0666666666666667,0.8,1213002.4740155,1213003.2433353,74,NaN,1213002.5434369,1213002.6095907,1213003.2482344,1213004.0465726,1,0.769319799961522
115,49,3,categorization,0,kitchen,SHINEd_labelme_rykdqxenmhulbdn.tif,63,0.0666666666666667,0.0666666666666667,0.766666666666667,1213004.051435,1213004.7080439,70,NaN,1213004.1206346,1213004.1869558,1213004.7121484,1213005.4771547,1,0.656608900055289
115,50,3,categorization,0,bathroom,SHINEd_sun_acegryoqftbzowsg.tif,17,0.0666666666666667,0.0666666666666667,1.38333333333333,1213005.4816904,1213006.4919471,74,NaN,1213005.5515757,1213005.6186772,1213006.4962678,1213007.8779392,1,1.01025669998489
115,1,4,categorization,0,bathroom,SHINEd_sun_agrwbmhcpmfuwmsg.tif,24,0.0666666666666667,0.0666666666666667,1,1213014.9851034,1213015.7012844,74,NaN,1213015.0544519,1213015.1204668,1213015.7055099,1213016.7038486,1,0.716180999996141
115,2,4,categorization,0,kitchen,SHINEd_sun_ayqymgxqhxxiykiw.tif,109,0.0666666666666667,0.0666666666666667,0.966666666666667,1213016.7080538,1213017.4750075,70,NaN,1213016.7772416,1213016.8434834,1213017.4805812,1213018.4455867,1,0.766953699989244
115,3,4,categorization,0,kitchen,SHINEd_sun_ahywdevtimnqcsln.tif,94,0.0666666666666667,0.0666666666666667,1.75,1213018.4502292,1213019.3472495,70,NaN,1213018.51977,1213018.5857851,1213019.3519852,1213021.1003238,1,0.89702029991895
115,4,4,categorization,0,bathroom,SHINEd_sun_apmqjbnwghzuhhzh.tif,46,0.0666666666666667,0.0666666666666667,1.68333333333333,1213021.1048268,1213021.7879864,74,NaN,1213021.175067,1213021.2403979,1213021.7920872,1213023.4737588,1,0.683159600012004
115,5,4,categorization,0,bathroom,SHINEd_sun_atstyziqcmkahyxk.tif,51,0.0666666666666667,0.0666666666666667,1.58333333333333,1213023.4784852,1213024.228063,74,NaN,1213023.5482122,1213023.6139969,1213024.2324684,1213025.8141393,1,0.749577799811959
115,6,4,categorization,0,kitchen,SHINEd_sun_aggjlwcdjsjcaemh.tif,86,0.0666666666666667,0.0666666666666667,1,1213025.8203614,1213026.8759674,70,NaN,1213025.8899786,1213025.9559372,1213026.880419,1213027.8787565,1,1.05560599989258
115,7,4,categorization,0,kitchen,SHINEd_sun_aeqdocilnnpuvuhx.tif,83,0.0666666666666667,0.0666666666666667,1.33333333333333,1213027.8831058,1213028.5727654,70,NaN,1213027.9524442,1213028.0186397,1213028.5770677,1213029.9087396,1,0.689659599913284
115,8,4,categorization,0,kitchen,SHINEd_sun_agorklincwxrdtga.tif,87,0.0666666666666667,0.0666666666666667,1.26666666666667,1213029.9132099,1213030.6193037,70,NaN,1213029.9823707,1213030.0487648,1213030.6243801,1213031.8893863,1,0.706093800021335
115,9,4,categorization,0,bathroom,SHINEd_sun_awnqiikzaispgmwo.tif,56,0.0666666666666667,0.0666666666666667,0.883333333333333,1213031.8936783,1213032.6032948,74,NaN,1213031.9629504,1213032.0310732,1213032.6088999,1213033.4905704,1,0.709616499952972
115,10,4,categorization,0,kitchen,SHINEd_sun_axyyrmzcupyhlivc.tif,106,0.0666666666666667,0.0666666666666667,1.26666666666667,1213033.4948759,1213034.2680937,70,NaN,1213033.5650131,1213033.6304303,1213034.2723021,1213035.5373067,1,0.773217800073326
115,11,4,categorization,0,bathroom,SHINEd_sun_aghyqhbptboemmoq.tif,23,0.0666666666666667,0.0666666666666667,2,1213035.5425657,1213036.5072993,74,NaN,1213035.6118425,1213035.6795538,1213036.5120758,1213038.5104152,1,0.964733600150794
115,12,4,categorization,0,bathroom,SHINEd_sun_ambriybtogmepttm.tif,36,0.0666666666666667,0.0666666666666667,0.733333333333333,1213038.5159589,1213039.3552968,74,NaN,1213038.585667,1213038.6514398,1213039.3601937,1213040.091865,1,0.839337899815291
115,13,4,categorization,0,bathroom,SHINEd_sun_axxbkopsgyouuebh.tif,58,0.0666666666666667,0.0666666666666667,0.883333333333333,1213040.0966659,1213041.0992235,74,NaN,1213040.1658407,1213040.2322986,1213041.1037664,1213041.9854391,1,1.00255759991705
115,14,4,categorization,0,bathroom,SHINEd_sun_apkxzenqapsujocq.tif,45,0.0666666666666667,0.0666666666666667,0.983333333333333,1213041.9900484,1213042.7633719,74,NaN,1213042.0593604,1213042.1256088,1213042.7689398,1213043.7506101,1,0.77332350006327
115,15,4,categorization,0,bathroom,SHINEd_sun_apeeialkgkuxddgh.tif,42,0.0666666666666667,0.0666666666666667,1.56666666666667,1213043.7550915,1213044.5239962,74,NaN,1213043.8242413,1213043.8905455,1213044.5286075,1213046.0936885,1,0.76890469994396
115,16,4,categorization,0,kitchen,SHINEd_sun_aehawpgmrlhlvcow.tif,81,0.0666666666666667,0.0666666666666667,1.08333333333333,1213046.0984506,1213047.1312648,70,NaN,1213046.167712,1213046.2338983,1213047.1358754,1213048.2175457,1,1.03281420003623
115,17,4,categorization,0,bathroom,SHINEd_sun_aggnnqpdorgxpvce.tif,21,0.0666666666666667,0.0666666666666667,0.75,1213048.2219425,1213048.9960707,70,NaN,1213048.2911745,1213048.357514,1213049.0002229,1213049.7485864,0,0.774128200020641
115,18,4,categorization,0,kitchen,SHINEd_sun_agubuxuukhzyzpdp.tif,88,0.0666666666666667,0.0666666666666667,0.966666666666667,1213049.7536702,1213050.4912724,70,NaN,1213049.8234446,1213049.8896186,1213050.4962069,1213051.4612117,1,0.737602199893445
115,19,4,categorization,0,kitchen,SHINEd_sun_agzzivivdpnawacl.tif,89,0.0666666666666667,0.0666666666666667,1.63333333333333,1213051.465774,1213052.4520129,70,NaN,1213051.5350393,1213051.6012171,1213052.456145,1213054.0878177,1,0.9862389001064
115,20,4,categorization,0,kitchen,SHINEd_sun_abdxkyyxwfskuaqb.tif,70,0.0666666666666667,0.0666666666666667,1.46666666666667,1213054.0938364,1213055.1632478,74,NaN,1213054.1630586,1213054.2292918,1213055.1680286,1213056.6330352,0,1.06941140000708
115,21,4,categorization,0,kitchen,SHINEd_sun_admlmbcdswaszruo.tif,79,0.0666666666666667,0.0666666666666667,0.933333333333333,1213056.6377616,1213057.42804,70,NaN,1213056.7068016,1213056.7731722,1213057.4322416,1213058.3639127,1,0.790278399828821
115,22,4,categorization,0,bathroom,SHINEd_sun_apjevzvycyhuqghb.tif,43,0.0666666666666667,0.0666666666666667,1.45,1213058.3690219,1213059.3472884,74,NaN,1213058.4383338,1213058.5047177,1213059.3522416,1213060.8005984,1,0.978266499936581
115,23,4,categorization,0,kitchen,SHINEd_sun_acxkpeoqbwcxfvip.tif,77,0.0666666666666667,0.0666666666666667,0.966666666666667,1213060.8055676,1213061.6193292,70,NaN,1213060.8749271,1213060.9410362,1213061.6243664,1213062.5893704,1,0.813761599827558
115,24,4,categorization,0,bathroom,SHINEd_sun_agyqfjcfkdcydepw.tif,25,0.0666666666666667,0.0666666666666667,0.816666666666667,1213062.5938242,1213063.2680261,74,NaN,1213062.663978,1213062.7292553,1213063.2726106,1213064.0876163,1,0.67420189990662
115,25,4,categorization,0,kitchen,SHINEd_sun_ajkqhtgcbgpcwrwn.tif,96,0.0666666666666667,0.0666666666666667,1.96666666666667,1213064.0922503,1213065.0361221,70,NaN,1213064.1614487,1213064.2277582,1213065.0405513,1213067.0055566,1,0.943871799856424
115,26,4,categorization,0,bathroom,SHINEd_sun_aunuadmjocsddsrl.tif,52,0.0666666666666667,0.0666666666666667,0.916666666666667,1213067.0101124,1213067.6999899,70,NaN,1213067.0799303,1213067.1461237,1213067.7040732,1213068.619079,0,0.689877500059083
115,27,4,categorization,0,kitchen,SHINEd_sun_aamedkxepzlwuxes.tif,65,0.0666666666666667,0.0666666666666667,1.28333333333333,1213068.6236662,1213069.6523063,70,NaN,1213068.6929335,1213068.7592776,1213069.6567057,1213070.9383991,1,1.02864009980112
115,28,4,categorization,0,kitchen,SHINEd_sun_acfmftudsenhrfhy.tif,74,0.0666666666666667,0.0666666666666667,1.8,1213070.9431252,1213072.1319379,70,NaN,1213071.0124355,1213071.078638,1213072.1371224,1213073.9354613,1,1.18881270010024
115,29,4,categorization,0,kitchen,SHINEd_sun_aunzlwrbjumxhwdj.tif,102,0.0666666666666667,0.0666666666666667,1.33333333333333,1213073.9398447,1213074.6921943,70,NaN,1213074.0090055,1213074.0755456,1213074.6965877,1213076.0282591,1,0.752349599963054
115,30,4,categorization,0,kitchen,SHINEd_sun_auaiucuqpdausiva.tif,101,0.0666666666666667,0.0666666666666667,1.06666666666667,1213076.0326918,1213076.8359256,70,NaN,1213076.1018697,1213076.1684826,1213076.8400605,1213077.9050651,1,0.803233799990267
115,31,4,categorization,0,bathroom,SHINEd_sun_axyrejkiiaqiurjk.tif,59,0.0666666666666667,0.0666666666666667,1.03333333333333,1213077.9097349,1213078.8282356,70,NaN,1213077.9790089,1213078.0452698,1213078.8328273,1213079.8644995,0,0.918500699801371
115,32,4,categorization,0,kitchen,SHINEd_sun_aegoxogugdkwpmpj.tif,80,0.0666666666666667,0.0666666666666667,0.733333333333333,1213079.8690209,1213081.0192996,70,NaN,1213079.9382649,1213080.0045756,1213081.0241998,1213081.7558721,1,1.15027870004997
115,33,4,categorization,0,kitchen,SHINEd_sun_acwjdupvyjsugpay.tif,76,0.0666666666666667,0.0666666666666667,0.766666666666667,1213081.7604498,1213082.6359231,70,NaN,1213081.8297139,1213081.8990435,1213082.6400627,1213083.4050676,1,0.875473299995065
115,34,4,categorization,0,bathroom,SHINEd_sun_ajlawzvmubibwbpy.tif,30,0.0666666666666667,0.0666666666666667,1.1,1213083.4094749,1213084.83564,74,NaN,1213083.4788104,1213083.5450112,1213084.8397604,1213085.9380981,1,1.42616509995423
115,35,4,categorization,0,kitchen,SHINEd_sun_azmutvzbxypaceni.tif,110,0.0666666666666667,0.0666666666666667,1.81666666666667,1213085.9428399,1213086.6760456,70,NaN,1213086.0120461,1213086.078444,1213086.6802466,1213088.4952524,1,0.733205700060353
115,36,4,categorization,0,bathroom,SHINEd_sun_aclfzgynxzxlbepz.tif,19,0.0666666666666667,0.0666666666666667,0.883333333333333,1213088.5007675,1213089.3636701,74,NaN,1213088.5705476,1213088.6363977,1213089.368882,1213090.2505535,1,0.862902600085363
115,37,4,categorization,0,bathroom,SHINEd_sun_afcoljnjfoxjtgja.tif,20,0.0666666666666667,0.0666666666666667,1.7,1213090.2550725,1213091.011938,74,NaN,1213090.3243495,1213090.3906058,1213091.0163493,1213092.7146878,1,0.756865500006825
115,38,4,categorization,0,kitchen,SHINEd_sun_akcjzhbbjlbogpdi.tif,98,0.0666666666666667,0.0666666666666667,1.58333333333333,1213092.7190949,1213093.4435419,70,NaN,1213092.7884213,1213092.8549777,1213093.4478473,1213095.029518,1,0.724447000073269
115,39,4,categorization,0,bathroom,SHINEd_sun_azqyogdvyhahyram.tif,60,0.0666666666666667,0.0666666666666667,0.833333333333333,1213095.0339236,1213095.7561285,74,NaN,1213095.1051361,1213095.1696417,1213095.7605166,1213096.5921994,1,0.722204899881035
115,40,4,categorization,0,bathroom,SHINEd_sun_auzqhkafidnkrwmo.tif,54,0.0666666666666667,0.0666666666666667,0.95,1213096.5975922,1213097.2433391,74,NaN,1213096.6668377,1213096.7331012,1213097.2482189,1213098.1965576,1,0.645746900001541
115,41,4,categorization,0,bathroom,SHINEd_sun_aspsyogrekjtfozg.tif,50,0.0666666666666667,0.0666666666666667,1.06666666666667,1213098.2009846,1213098.8123208,74,NaN,1213098.270247,1213098.3364983,1213098.81644,1213099.8814455,1,0.611336200032383
115,42,4,categorization,0,bathroom,SHINEd_sun_apkruvsevgegsdwp.tif,44,0.0666666666666667,0.0666666666666667,1.68333333333333,1213099.8860609,1213100.5072212,74,NaN,1213099.9553359,1213100.0215471,1213100.5118732,1213102.1935454,1,0.621160299982876
115,43,4,categorization,0,kitchen,SHINEd_sun_afuyedyxivkhecmu.tif,85,0.0666666666666667,0.0666666666666667,1.31666666666667,1213102.1981413,1213103.0038984,70,NaN,1213102.2673796,1213102.3336061,1213103.0079629,1213104.3229699,1,0.80575710022822
115,44,4,categorization,0,bathroom,SHINEd_sun_aoybiabnpadelefl.tif,41,0.0666666666666667,0.0666666666666667,1.61666666666667,1213104.3275364,1213105.1960143,74,NaN,1213104.3968313,1213104.4631786,1213105.2005106,1213106.8155169,1,0.868477900046855
115,45,4,categorization,0,kitchen,SHINEd_sun_aadbddgrdsjugojn.tif,64,0.0666666666666667,0.0666666666666667,1.15,1213106.8203733,1213107.6040397,70,NaN,1213106.8901241,1213106.9559461,1213107.6082075,1213108.7565458,1,0.783666400006041
115,46,4,categorization,0,bathroom,SHINEd_sun_ahqjwnzgolcaoidx.tif,29,0.0666666666666667,0.0666666666666667,1.25,1213108.7611556,1213109.4919305,74,NaN,1213108.8327661,1213108.8966525,1213109.4960034,1213110.7443415,1,0.730774899944663
115,47,4,categorization,0,kitchen,SHINEd_sun_acgtpgfybqjmzeyw.tif,75,0.0666666666666667,0.0666666666666667,1.1,1213110.7504642,1213111.483211,70,NaN,1213110.8217792,1213110.8864802,1213111.4883415,1213112.5866793,1,0.732746799942106
115,48,4,categorization,0,kitchen,SHINEd_sun_adgqasybjyktddhj.tif,78,0.0666666666666667,0.0666666666666667,0.9,1213112.5911889,1213113.3552292,70,NaN,1213112.6607927,1213112.7266782,1213113.3605886,1213114.2589273,1,0.764040300156921
115,49,4,categorization,0,kitchen,SHINEd_sun_ajcbwwvdlsvjyzje.tif,95,0.0666666666666667,0.0666666666666667,1.3,1213114.2634482,1213115.2512217,70,NaN,1213114.332699,1213114.3989627,1213115.2564542,1213116.5548072,1,0.98777350015007
115,50,4,categorization,0,bathroom,SHINEd_sun_asfwthctfqerjvxr.tif,49,0.0666666666666667,0.0666666666666667,1.25,1213116.5593736,1213117.2433542,74,NaN,1213116.6285596,1213116.6951002,1213117.2480234,1213118.4963628,1,0.683980599977076
