sub_num,trial,block,task,is_practice,category,image,texture,duration,mask_dur,jitter,stim_time,time_of_resp,trial_response,mask_time,fix_time,jit_onset,trial_end,trial_accuracy,RT
141,6,0,complexity,1,kitchen,kitchen_practice5.tif,230,1.5,0,1.46666666666667,9630.735273708,9634.914283375,1,NaN,9634.920174917,9634.938507125,9636.398552917,NaN,NaN
141,7,0,complexity,1,kitchen,kitchen_practice2.tif,227,1.5,0,1.31666666666667,9636.418925292,9640.114810833,6,NaN,9640.120252417,9640.138563875,9641.448613333,NaN,NaN
141,8,0,complexity,1,kitchen,kitchen_practice4.tif,229,1.5,0,1.76666666666667,9641.4665015,9643.899032208,5,NaN,9643.904374958,9643.922600833,9645.682628917,NaN,NaN
141,9,0,complexity,1,kitchen,kitchen_practice1.tif,226,1.5,0,0.816666666666667,9645.699542292,9648.996531708,5,NaN,9649.024996208,9649.048218875,9649.858222542,NaN,NaN
141,10,0,complexity,1,kitchen,kitchen_practice3.tif,228,1.5,0,0.9,9649.863150417,9652.647655208,1,NaN,9652.675790375,9652.69916125,9653.59250025,NaN,NaN
141,1,1,complexity,0,kitchen,sun_avszsnwsbuqfgzbn.tif,215,1.5,0,1.15,9658.077748625,9660.81393175,7,NaN,9660.841700417,9660.865257667,9662.008645625,NaN,NaN
141,2,1,complexity,0,kitchen,sun_ahpczsiumwwocjkv.tif,202,1.5,0,1.33333333333333,9662.018456208,9664.634474542,1,NaN,9664.64008625,9664.658352125,9665.985039125,NaN,NaN
141,3,1,complexity,0,kitchen,sun_aeqdocilnnpuvuhx.tif,193,1.5,0,1.75,9665.997916625,9668.810809667,1,NaN,9668.816161625,9668.8344385,9670.577815542,NaN,NaN
141,4,1,complexity,0,kitchen,sun_ahywdevtimnqcsln.tif,204,1.5,0,1.2,9670.598653708,9673.387839792,4,NaN,9673.416919958,9673.440128958,9674.63351225,NaN,NaN
141,5,1,complexity,0,kitchen,sun_aqeaevwwwjoqhzvl.tif,211,1.5,0,1.46666666666667,9674.648888917,9678.090285792,5,NaN,9678.096134708,9678.114401667,9679.574449833,NaN,NaN
141,6,1,complexity,0,kitchen,sun_aehawpgmrlhlvcow.tif,191,1.5,0,1.01666666666667,9679.591327583,9683.602482042,1,NaN,9683.608877833,9683.6272,9684.637240333,NaN,NaN
141,7,1,complexity,0,kitchen,sun_agorklincwxrdtga.tif,197,1.5,0,1.18333333333333,9684.64658925,9687.506122042,1,NaN,9687.51192325,9687.530125625,9688.706835958,NaN,NaN
141,8,1,complexity,0,kitchen,sun_agzzivivdpnawacl.tif,199,1.5,0,1.03333333333333,9688.719224167,9691.674192042,4,NaN,9691.67995525,9691.698190458,9692.7249005,NaN,NaN
141,9,1,complexity,0,kitchen,sun_acfmftudsenhrfhy.tif,184,1.5,0,1.25,9692.734893083,9695.786197292,4,NaN,9695.791951958,9695.810265667,9697.053656125,NaN,NaN
141,10,1,complexity,0,kitchen,sun_aarfiyshqohlwkmo.tif,177,1.5,0,0.733333333333333,9697.073504333,9700.458231333,3,NaN,9700.463939208,9700.482276167,9701.208948417,NaN,NaN
141,11,1,complexity,0,kitchen,labelme_rykdqxenmhulbdn.tif,173,1.5,0,1.01666666666667,9701.227950833,9704.610039792,5,NaN,9704.616091333,9704.634452333,9705.644496333,NaN,NaN
141,12,1,complexity,0,kitchen,sun_aexklacwqwezaorf.tif,194,1.5,0,1.53333333333333,9705.65278125,9710.514391417,1,NaN,9710.520059667,9710.538315875,9712.065014875,NaN,NaN
141,13,1,complexity,0,kitchen,sun_aunzlwrbjumxhwdj.tif,213,1.5,0,1.33333333333333,9712.085605167,9716.426173208,3,NaN,9716.432606625,9716.450977417,9717.77770025,NaN,NaN
141,14,1,complexity,0,kitchen,sun_ahljzhgcdpomplvg.tif,201,1.5,0,1.53333333333333,9717.799463417,9722.346432167,3,NaN,9722.352055417,9722.370411875,9723.89711925,NaN,NaN
141,15,1,complexity,0,kitchen,labelme_kxvouciolcpqplr.tif,172,1.5,0,1.01666666666667,9723.908036167,9727.026141708,1,NaN,9727.031999542,9727.050274208,9728.060305958,NaN,NaN
141,16,1,complexity,0,kitchen,sun_awcpdzzznmweyyhv.tif,216,1.5,0,1.23333333333333,9728.068778625,9730.938338208,1,NaN,9730.943747875,9730.9620075,9732.188728833,NaN,NaN
141,17,1,complexity,0,kitchen,sun_aaxxjlsuzvqlgylf.tif,178,1.5,0,1.18333333333333,9732.208542833,9735.530530208,5,NaN,9735.535892417,9735.554158542,9736.730878125,NaN,NaN
141,18,1,complexity,0,kitchen,sun_aamedkxepzlwuxes.tif,175,1.5,0,0.783333333333333,9736.740339667,9742.578795292,6,NaN,9742.584145667,9742.602516667,9743.379188792,NaN,NaN
141,19,1,complexity,0,kitchen,sun_ajcbwwvdlsvjyzje.tif,206,1.5,0,1.73333333333333,9743.383585375,9746.570713292,5,NaN,9746.577092667,9746.595374458,9748.32208975,NaN,NaN
141,20,1,complexity,0,kitchen,sun_azmutvzbxypaceni.tif,220,1.5,0,1.21666666666667,9748.340865958,9753.57868275,1,NaN,9753.584109792,9753.602472083,9754.8125225,NaN,NaN
141,21,1,complexity,0,kitchen,sun_acxkpeoqbwcxfvip.tif,187,1.5,0,1.26666666666667,9754.825448583,9758.418669583,5,NaN,9758.424006417,9758.442339708,9759.702381083,NaN,NaN
141,22,1,complexity,0,kitchen,sun_aggjlwcdjsjcaemh.tif,196,1.5,0,0.783333333333333,9759.717504708,9762.778222708,1,NaN,9762.784198417,9762.802486458,9763.579159417,NaN,NaN
141,23,1,complexity,0,kitchen,sun_aadbddgrdsjugojn.tif,174,1.5,0,1.48333333333333,9763.583999917,9768.418823292,5,NaN,9768.424168917,9768.442466708,9769.919162083,NaN,NaN
141,24,1,complexity,0,kitchen,sun_acwjdupvyjsugpay.tif,186,1.5,0,1.36666666666667,9769.930700708,9772.882011792,1,NaN,9772.887805583,9772.90614375,9774.26619525,NaN,NaN
141,25,1,complexity,0,kitchen,sun_auticobqsbwgoppi.tif,214,1.5,0,0.983333333333333,9774.282178917,9778.17859525,6,NaN,9778.184023083,9778.202588958,9779.179261,NaN,NaN
141,1,2,complexity,0,kitchen,sun_aixorpehvfykdynp.tif,205,1.5,0,1.26666666666667,9783.573748875,9786.527481208,2,NaN,9786.556215458,9786.579050375,9787.83908575,NaN,NaN
141,2,2,complexity,0,kitchen,sun_aypmqwcualkenuoe.tif,219,1.5,0,1.11666666666667,9787.854820583,9790.178823042,7,NaN,9790.184156375,9790.202478458,9791.312515958,NaN,NaN
141,3,2,complexity,0,kitchen,sun_aymvwlarqodbwuoc.tif,218,1.5,0,1.43333333333333,9791.322277292,9794.210279958,1,NaN,9794.215586833,9794.233907875,9795.660623542,NaN,NaN
141,4,2,complexity,0,kitchen,sun_amjjdeyrggfqgmom.tif,210,1.5,0,0.8,9795.676504417,9799.282566792,1,NaN,9799.287999917,9799.306336042,9800.099675958,NaN,NaN
141,5,2,complexity,0,kitchen,sun_akcjzhbbjlbogpdi.tif,209,1.5,0,0.733333333333333,9800.1041835,9803.234691333,1,NaN,9803.246113333,9803.264572875,9803.991245667,NaN,NaN
141,6,2,complexity,0,kitchen,sun_abdxkyyxwfskuaqb.tif,180,1.5,0,1.03333333333333,9803.995851083,9806.685649333,4,NaN,9806.713751083,9806.736218917,9807.762921292,NaN,NaN
141,7,2,complexity,0,kitchen,sun_acgtpgfybqjmzeyw.tif,185,1.5,0,1.56666666666667,9807.772554958,9810.610502875,4,NaN,9810.6157915,9810.634130917,9812.194183417,NaN,NaN
141,8,2,complexity,0,kitchen,sun_ahdycvpopffkzzsu.tif,200,1.5,0,0.866666666666667,9812.21410275,9815.021431333,4,NaN,9815.049949042,9815.072589,9815.932593083,NaN,NaN
141,9,2,complexity,0,kitchen,sun_ajkqhtgcbgpcwrwn.tif,207,1.5,0,0.716666666666667,9815.937393625,9819.834701917,7,NaN,9819.840120333,9819.858490208,9820.568495292,NaN,NaN
141,10,2,complexity,0,kitchen,sun_agubuxuukhzyzpdp.tif,198,1.5,0,1.33333333333333,9820.577498167,9824.51450125,6,NaN,9824.519824875,9824.538191417,9825.864911625,NaN,NaN
141,11,2,complexity,0,kitchen,sun_aegoxogugdkwpmpj.tif,190,1.5,0,1.01666666666667,9825.88218975,9828.730606417,7,NaN,9828.736004625,9828.754332792,9829.764383292,NaN,NaN
141,12,2,complexity,0,kitchen,sun_aenotlpyftoioydp.tif,192,1.5,0,0.733333333333333,9829.772536292,9833.010209417,2,NaN,9833.015781333,9833.034281792,9833.760953917,NaN,NaN
141,13,2,complexity,0,kitchen,sun_auaiucuqpdausiva.tif,212,1.5,0,1.38333333333333,9833.765912375,9836.542234458,1,NaN,9836.568260542,9836.591619708,9837.968319958,NaN,NaN
141,14,2,complexity,0,kitchen,sun_aapllqyqlykszopd.tif,176,1.5,0,1.06666666666667,9837.979413292,9841.569790333,5,NaN,9841.57545925,9841.594087792,9842.654123458,NaN,NaN
141,15,2,complexity,0,kitchen,sun_adgqasybjyktddhj.tif,188,1.5,0,0.85,9842.663306542,9845.217847083,1,NaN,9845.223485208,9845.241810667,9846.085149625,NaN,NaN
141,16,2,complexity,0,kitchen,labelme_brsyyvweiuaazfr.tif,171,1.5,0,0.9,9846.089565875,9850.986644208,3,NaN,9850.992105083,9851.011004875,9851.904343917,NaN,NaN
141,17,2,complexity,0,kitchen,sun_admlmbcdswaszruo.tif,189,1.5,0,1.55,9851.908631417,9854.673776625,3,NaN,9854.702667417,9854.725855458,9856.269223208,NaN,NaN
141,18,2,complexity,0,kitchen,sun_abrcnpqqhmjwekyf.tif,183,1.5,0,0.7,9856.286647125,9859.418359125,2,NaN,9859.423789083,9859.442112333,9860.135449708,NaN,NaN
141,19,2,complexity,0,kitchen,sun_abdenxonkemggwsq.tif,179,1.5,0,0.716666666666667,9860.139908667,9863.746507125,5,NaN,9863.7524175,9863.770928167,9864.480933167,NaN,NaN
141,20,2,complexity,0,kitchen,sun_akchetnepxlcxhsu.tif,208,1.5,0,0.85,9864.486363375,9868.250275042,3,NaN,9868.255626583,9868.273853167,9869.117190583,NaN,NaN
141,21,2,complexity,0,kitchen,sun_axyyrmzcupyhlivc.tif,217,1.5,0,1.35,9869.121556625,9872.061757417,3,NaN,9872.090129542,9872.113688583,9873.457059792,NaN,NaN
141,22,2,complexity,0,kitchen,sun_abftihopvusyfakt.tif,181,1.5,0,1.96666666666667,9873.47548925,9876.0184425,1,NaN,9876.023805417,9876.042360167,9878.002412,NaN,NaN
141,23,2,complexity,0,kitchen,sun_afuyedyxivkhecmu.tif,195,1.5,0,0.933333333333333,9878.021340083,9880.875343958,7,NaN,9880.903745083,9880.927169833,9881.853841917,NaN,NaN
141,24,2,complexity,0,kitchen,sun_ahspylgoovwmwvgk.tif,203,1.5,0,1.33333333333333,9881.859525208,9884.490411583,1,NaN,9884.518807,9884.541499417,9885.868197083,NaN,NaN
141,25,2,complexity,0,kitchen,sun_abpwyqmlzafvklqo.tif,182,1.5,0,1.16666666666667,9885.886169125,9891.505936292,2,NaN,9891.511635625,9891.529832,9892.689879792,NaN,NaN
