slide,sub1,sub2,pairID,trialID,stim1,stim2,instructionsLoop.thisRepN,instructionsLoop.thisTrialN,instructionsLoop.thisN,instructionsLoop.thisIndex,practice.thisRepN,practice.thisTrialN,practice.thisN,practice.thisIndex,trials.thisRepN,trials.thisTrialN,trials.thisN,trials.thisIndex,thisRow.t,notes,preparation.started,preparation.stopped,instructions.started,startResponse.started,slide_img.started,instructions.stopped,startResponse.keys,startResponse.rt,startResponse.duration,trial.started,polygon.started,polygon_2.started,image1.started,image2.started,rating_1.started,question.started,rating_2.started,question_2.started,block_text.started,trial.stopped,stim1pos,stim2pos,block,rating_1.response,rating_1.rt,rating_2.response,rating_2.rt,ITI.started,text.started,text.stopped,ITI.stopped,practice_over.started,text_2.started,space_practice_over.started,practice_over.stopped,space_practice_over.keys,space_practice_over.rt,space_practice_over.duration,breakBlocks.started,breakBlocks.stopped,startBlock.keys,startBlock.started,startBlock.rt,startBlock.duration,end.started,message_end.started,key_resp.started,end.stopped,key_resp.keys,key_resp.rt,key_resp.duration,participant,session,session_number,date,expName,psychopyVersion,frameRate,expStart,
instructions/Slide1.jpg,,,,,,,0,0,0,0,,,,,,,,,0.022759208000024955,,0.001998083000216866,0.002096125000207394,0.008639667000352347,0.022759208000024955,0.022759208000024955,16.498894917000143,space,16.475909292000324,None,,,,,,,,,,,,,,,,,,,,,,,,,,,,,,,,,,,,,,,,,,,202,bathroom,2,2024-03-16_15h37.42.145,image_similarity_rating,2023.2.3,None,2024-03-16 15h38.01.704909 +0100,
instructions/Slide3.jpg,,,,,,,0,1,1,1,,,,,,,,,16.522557500000403,,,,16.499799875000463,16.522557500000403,16.522557500000403,46.52123204199961,space,29.998296458000368,None,,,,,,,,,,,,,,,,,,,,,,,,,,,,,,,,,,,,,,,,,,,202,bathroom,2,2024-03-16_15h37.42.145,image_similarity_rating,2023.2.3,None,2024-03-16 15h38.01.704909 +0100,
instructions/Slide4.jpg,,,,,,,0,2,2,2,,,,,,,,,46.54712183300035,,,,46.522291625000435,46.54712183300035,46.54712183300035,48.737412832999325,space,2.1899339169995073,None,,,,,,,,,,,,,,,,,,,,,,,,,,,,,,,,,,,,,,,,,,,202,bathroom,2,2024-03-16_15h37.42.145,image_similarity_rating,2023.2.3,None,2024-03-16 15h38.01.704909 +0100,
instructions/Slide5.jpg,,,,,,,0,3,3,3,,,,,,,,,48.764234792000934,,,,48.73844804200053,48.764234792000934,48.764234792000934,62.74178225000105,space,13.977183666000201,None,,,,,,,,,,,,,,,,,,,,,,,,,,,,,,,,,,,,,,,,,,,202,bathroom,2,2024-03-16_15h37.42.145,image_similarity_rating,2023.2.3,None,2024-03-16 15h38.01.704909 +0100,
,108,110,practice,8,stimuli/own/bathroom/108_bat.jpg,stimuli/own/bathroom/110_bat.jpg,,,,,0,0,0,7,,,,,62.938368625000294,,,,,,,,,,,62.75861583299957,62.938368625000294,62.938368625000294,62.938368625000294,62.938368625000294,62.938368625000294,62.938368625000294,62.938368625000294,62.938368625000294,62.938368625000294,79.55719154200051,7,-7,0,1.0,11.675103875000787,3.0,15.849495792001107,79.55741670799944,79.56666891699933,80.01776550000068,79.85111766699993,,,,,,,,,,,,,,,,,,,,,202,bathroom,2,2024-03-16_15h37.42.145,image_similarity_rating,2023.2.3,None,2024-03-16 15h38.01.704909 +0100,
,110,107,practice,4,stimuli/own/bathroom/110_bat.jpg,stimuli/own/bathroom/107_bat.jpg,,,,,0,1,1,3,,,,,80.01776550000068,,,,,,,,,,,79.85154295800021,80.01776550000068,80.01776550000068,80.01776550000068,80.01776550000068,80.01776550000068,80.01776550000068,80.01776550000068,80.01776550000068,80.01776550000068,106.9900036250001,7,-7,0,2.0,5.851917707999746,2.0,26.860191583000415,106.99014587500096,106.99973175000014,107.45030683299956,107.28468033299941,,,,,,,,,,,,,,,,,,,,,202,bathroom,2,2024-03-16_15h37.42.145,image_similarity_rating,2023.2.3,None,2024-03-16 15h38.01.704909 +0100,
,128,108,practice,3,stimuli/own/bathroom/128_bat.jpg,stimuli/own/bathroom/108_bat.jpg,,,,,0,2,2,2,,,,,107.45030683299956,,,,,,,,,,,107.2850529999996,107.45030683299956,107.45030683299956,107.45030683299956,107.45030683299956,107.45030683299956,107.45030683299956,107.45030683299956,107.45030683299956,107.45030683299956,113.76992458300083,-7,7,0,2.0,5.000224084000365,4.0,6.198142707999068,113.77007262500047,113.78309733300011,114.23614649999945,114.06820508300007,,,,,,,,,,,,,,,,,,,,,202,bathroom,2,2024-03-16_15h37.42.145,image_similarity_rating,2023.2.3,None,2024-03-16 15h38.01.704909 +0100,
,110,133,practice,1,stimuli/own/bathroom/110_bat.jpg,stimuli/own/bathroom/133_bat.jpg,,,,,0,3,3,0,,,,,114.23614649999945,,,,,,,,,,,114.06868666700029,114.23614649999945,114.23614649999945,114.23614649999945,114.23614649999945,114.23614649999945,114.23614649999945,114.23614649999945,114.23614649999945,114.23614649999945,118.73588358300003,-7,7,0,5.0,2.40630579199933,4.0,4.483656415999576,118.73602458300047,118.74972200000047,119.19905804200062,119.03459012500025,,,,,,,,,,,,,,,,,,,,,202,bathroom,2,2024-03-16_15h37.42.145,image_similarity_rating,2023.2.3,None,2024-03-16 15h38.01.704909 +0100,
,108,133,practice,10,stimuli/own/bathroom/108_bat.jpg,stimuli/own/bathroom/133_bat.jpg,,,,,0,4,4,9,,,,,119.19905804200062,,,,,,,,,,,119.03497320799943,119.19905804200062,119.19905804200062,119.19905804200062,119.19905804200062,119.19905804200062,119.19905804200062,119.19905804200062,119.19905804200062,119.19905804200062,123.56920833299955,7,-7,0,1.0,2.8038741249984014,3.0,4.267291500000283,123.5693520420009,123.58301466699959,124.03727062500002,123.86835112500012,,,,,,,,,,,,,,,,,,,,,202,bathroom,2,2024-03-16_15h37.42.145,image_similarity_rating,2023.2.3,None,2024-03-16 15h38.01.704909 +0100,
,128,133,practice,6,stimuli/own/bathroom/128_bat.jpg,stimuli/own/bathroom/133_bat.jpg,,,,,0,5,5,5,,,,,124.03727062500002,,,,,,,,,,,123.8688027499993,124.03727062500002,124.03727062500002,124.03727062500002,124.03727062500002,124.03727062500002,124.03727062500002,124.03727062500002,124.03727062500002,124.03727062500002,128.7983017080005,7,-7,0,1.0,2.8315374579997297,3.0,4.690580000000409,128.7984500420007,128.80141091699988,129.24905308300004,129.08452949999992,,,,,,,,,,,,,,,,,,,,,202,bathroom,2,2024-03-16_15h37.42.145,image_similarity_rating,2023.2.3,None,2024-03-16 15h38.01.704909 +0100,
,107,128,practice,7,stimuli/own/bathroom/107_bat.jpg,stimuli/own/bathroom/128_bat.jpg,,,,,0,6,6,6,,,,,129.24905308300004,,,,,,,,,,,129.08490466700096,129.24905308300004,129.24905308300004,129.24905308300004,129.24905308300004,129.24905308300004,129.24905308300004,129.24905308300004,129.24905308300004,129.24905308300004,133.10280266700101,-7,7,0,1.0,2.8708199160009826,1.0,3.7418360839983507,133.10294095800054,133.10487162500067,133.55188691700096,133.38831687499987,,,,,,,,,,,,,,,,,,,,,202,bathroom,2,2024-03-16_15h37.42.145,image_similarity_rating,2023.2.3,None,2024-03-16 15h38.01.704909 +0100,
,107,133,practice,9,stimuli/own/bathroom/107_bat.jpg,stimuli/own/bathroom/133_bat.jpg,,,,,0,7,7,8,,,,,133.55188691700096,,,,,,,,,,,133.3886155830005,133.55188691700096,133.55188691700096,133.55188691700096,133.55188691700096,133.55188691700096,133.55188691700096,133.55188691700096,133.55188691700096,133.55188691700096,139.46933095799977,-7,7,0,4.0,3.1917947080000886,3.0,5.841876292000961,139.46947304199966,139.47128491700096,139.91790983300052,139.75483974999952,,,,,,,,,,,,,,,,,,,,,202,bathroom,2,2024-03-16_15h37.42.145,image_similarity_rating,2023.2.3,None,2024-03-16 15h38.01.704909 +0100,
,107,108,practice,5,stimuli/own/bathroom/107_bat.jpg,stimuli/own/bathroom/108_bat.jpg,,,,,0,8,8,4,,,,,139.91790983300052,,,,,,,,,,,139.75513154200053,139.91790983300052,139.91790983300052,139.91790983300052,139.91790983300052,139.91790983300052,139.91790983300052,139.91790983300052,139.91790983300052,139.91790983300052,144.52032158300062,-7,7,0,1.0,2.9198580410011346,2.0,4.4638869169993995,144.52047129200037,144.5329330830009,144.98213208299967,144.81783949999954,,,,,,,,,,,,,,,,,,,,,202,bathroom,2,2024-03-16_15h37.42.145,image_similarity_rating,2023.2.3,None,2024-03-16 15h38.01.704909 +0100,
,110,128,practice,2,stimuli/own/bathroom/110_bat.jpg,stimuli/own/bathroom/128_bat.jpg,,,,,0,9,9,1,,,,,144.98213208299967,,,,,,,,,,,144.8182192080003,144.98213208299967,144.98213208299967,144.98213208299967,144.98213208299967,144.98213208299967,144.98213208299967,144.98213208299967,144.98213208299967,144.98213208299967,151.51862458300093,-7,7,0,1.0,5.400794875000429,5.0,6.351606000000174,151.51876270799949,151.52066079200085,151.8168931250002,151.80478320800103,,,,,,,,,,,,,,,,,,,,,202,bathroom,2,2024-03-16_15h37.42.145,image_similarity_rating,2023.2.3,None,2024-03-16 15h38.01.704909 +0100,
,,,,,,,,,,,,,,,,,,,,,,,,,,,,,,,,,,,,,,,,,,,,,,,,,,,,151.80486483300047,151.8168931250002,151.8168931250002,152.64116716699937,space,0.824040707999302,None,,,,,,,,,,,,,,202,bathroom,2,2024-03-16_15h37.42.145,image_similarity_rating,2023.2.3,None,2024-03-16 15h38.01.704909 +0100,
,104,112,104,104,stimuli/own/bathroom/104_bat.jpg,stimuli/own/bathroom/112_bat.jpg,,,,,,,,,0,0,0,103,152.6903177080003,,,,,,,,,,,152.98419612500038,153.164856667001,153.164856667001,153.164856667001,153.164856667001,153.164856667001,153.164856667001,153.164856667001,153.164856667001,153.164856667001,165.23565208299988,7,-7,1,2.0,9.740272458000618,1.0,11.823989665999761,152.6881297079999,152.6903177080003,153.164856667001,152.98417891700046,,,,,,,,152.67474391699943,152.687844125001,None,,,,,,,,,,,202,bathroom,2,2024-03-16_15h37.42.145,image_similarity_rating,2023.2.3,None,2024-03-16 15h38.01.704909 +0100,
,103,109,71,71,stimuli/own/bathroom/103_bat.jpg,stimuli/own/bathroom/109_bat.jpg,,,,,,,,,0,1,1,70,165.24452591699992,,,,,,,,,,,165.5343093749998,165.69924629200068,165.69924629200068,165.69924629200068,165.69924629200068,165.69924629200068,165.69924629200068,165.69924629200068,165.69924629200068,165.69924629200068,172.45305683300103,7,-7,1,1.0,3.954464165999525,3.0,6.712546499999007,165.24209379199965,165.24452591699992,165.69924629200068,165.53429633300038,,,,,,,,165.2362347920007,165.24204370799998,None,,,,,,,,,,,202,bathroom,2,2024-03-16_15h37.42.145,image_similarity_rating,2023.2.3,None,2024-03-16 15h38.01.704909 +0100,
,134,135,568,568,stimuli/own/bathroom/134_bat.jpg,stimuli/own/bathroom/135_bat.jpg,,,,,,,,,0,2,2,567,172.46606316699945,,,,,,,,,,,172.75092075000066,172.91522391699982,172.91522391699982,172.91522391699982,172.91522391699982,172.91522391699982,172.91522391699982,172.91522391699982,172.91522391699982,172.91522391699982,177.8356330000006,-7,7,1,3.0,2.648022957999274,5.0,4.7838736250014335,172.45687562500098,172.46606316699945,172.91522391699982,172.75090716700106,,,,,,,,172.45327700000053,172.45682416700038,None,,,,,,,,,,,202,bathroom,2,2024-03-16_15h37.42.145,image_similarity_rating,2023.2.3,None,2024-03-16 15h38.01.704909 +0100,
,122,140,458,458,stimuli/own/bathroom/122_bat.jpg,stimuli/own/bathroom/140_bat.jpg,,,,,,,,,0,3,3,457,177.84135383300054,,,,,,,,,,,178.1341463330009,178.29899608300002,178.29899608300002,178.29899608300002,178.29899608300002,178.29899608300002,178.29899608300002,178.29899608300002,178.29899608300002,178.29899608300002,186.643724208001,7,-7,1,4.0,7.514481332998912,2.0,8.196138500001325,177.8393134580001,177.84135383300054,178.29899608300002,178.13413600000058,,,,,,,,177.835855583,177.83926687500025,None,,,,,,,,,,,202,bathroom,2,2024-03-16_15h37.42.145,image_similarity_rating,2023.2.3,None,2024-03-16 15h38.01.704909 +0100,
,132,137,563,563,stimuli/own/bathroom/132_bat.jpg,stimuli/own/bathroom/137_bat.jpg,,,,,,,,,0,4,4,562,186.6493105419995,,,,,,,,,,,186.93478891700033,187.09992899999997,187.09992899999997,187.09992899999997,187.09992899999997,187.09992899999997,187.09992899999997,187.09992899999997,187.09992899999997,187.09992899999997,195.12353687500035,-7,7,1,5.0,5.996528292000221,4.0,7.878737958999409,186.64741112500087,186.6493105419995,187.09992899999997,186.93477566699949,,,,,,,,186.64394625000023,186.64736395799991,None,,,,,,,,,,,202,bathroom,2,2024-03-16_15h37.42.145,image_similarity_rating,2023.2.3,None,2024-03-16 15h38.01.704909 +0100,
,125,138,501,501,stimuli/own/bathroom/125_bat.jpg,stimuli/own/bathroom/138_bat.jpg,,,,,,,,,0,5,5,500,195.13270054200075,,,,,,,,,,,195.4179844579994,195.58733504200063,195.58733504200063,195.58733504200063,195.58733504200063,195.58733504200063,195.58733504200063,195.58733504200063,195.58733504200063,195.58733504200063,204.49481695800023,7,-7,1,5.0,6.968852666001112,5.0,8.734104416000264,195.12739862499984,195.13270054200075,195.58733504200063,195.4179686669995,,,,,,,,195.1237738330001,195.12735041700034,None,,,,,,,,,,,202,bathroom,2,2024-03-16_15h37.42.145,image_similarity_rating,2023.2.3,None,2024-03-16 15h38.01.704909 +0100,
,114,135,313,313,stimuli/own/bathroom/114_bat.jpg,stimuli/own/bathroom/135_bat.jpg,,,,,,,,,0,6,6,312,204.50081933299953,,,,,,,,,,,204.78429066699937,204.94843983300052,204.94843983300052,204.94843983300052,204.94843983300052,204.94843983300052,204.94843983300052,204.94843983300052,204.94843983300052,204.94843983300052,210.77398575000007,7,-7,1,3.0,4.411679457998616,5.0,5.713760499998898,204.498529333001,204.50081933299953,204.94843983300052,204.78427675000057,,,,,,,,204.495036833001,204.49848225000096,None,,,,,,,,,,,202,bathroom,2,2024-03-16_15h37.42.145,image_similarity_rating,2023.2.3,None,2024-03-16 15h38.01.704909 +0100,
,120,126,411,411,stimuli/own/bathroom/120_bat.jpg,stimuli/own/bathroom/126_bat.jpg,,,,,,,,,0,7,7,410,210.78259224999965,,,,,,,,,,,211.06726020799942,211.2321010830001,211.2321010830001,211.2321010830001,211.2321010830001,211.2321010830001,211.2321010830001,211.2321010830001,211.2321010830001,211.2321010830001,217.99902770799963,7,-7,1,2.0,4.852903708000667,5.0,6.597702499999286,210.77778491699974,210.78259224999965,211.2321010830001,211.06724462500097,,,,,,,,210.774207167,210.7777372920009,None,,,,,,,,,,,202,bathroom,2,2024-03-16_15h37.42.145,image_similarity_rating,2023.2.3,None,2024-03-16 15h38.01.704909 +0100,
,129,141,540,540,stimuli/own/bathroom/129_bat.jpg,stimuli/own/bathroom/141_bat.jpg,,,,,,,,,0,8,8,539,218.00466866699935,,,,,,,,,,,218.28790300000037,218.45163458299976,218.45163458299976,218.45163458299976,218.45163458299976,218.45163458299976,218.45163458299976,218.45163458299976,218.45163458299976,218.45163458299976,246.314527292001,-7,7,1,2.0,26.818713541999387,5.0,27.85252112499984,218.00274316700052,218.00466866699935,218.45163458299976,218.28788991700094,,,,,,,,217.99925104199974,218.00269587500043,None,,,,,,,,,,,202,bathroom,2,2024-03-16_15h37.42.145,image_similarity_rating,2023.2.3,None,2024-03-16 15h38.01.704909 +0100,
,116,137,338,338,stimuli/own/bathroom/116_bat.jpg,stimuli/own/bathroom/137_bat.jpg,,,,,,,,,0,9,9,337,246.3201385829998,,,,,,,,,,,246.60485954199976,246.76955537499998,246.76955537499998,246.76955537499998,246.76955537499998,246.76955537499998,246.76955537499998,246.76955537499998,246.76955537499998,246.76955537499998,250.47245649999968,7,-7,1,1.0,2.417424999999639,1.0,3.677604333999625,246.31834629200057,246.3201385829998,246.76955537499998,246.60484604200064,,,,,,,,246.31475070799934,246.31829883300088,None,,,,,,,,,,,202,bathroom,2,2024-03-16_15h37.42.145,image_similarity_rating,2023.2.3,None,2024-03-16 15h38.01.704909 +0100,
,120,125,410,410,stimuli/own/bathroom/120_bat.jpg,stimuli/own/bathroom/125_bat.jpg,,,,,,,,,0,10,10,409,250.48272954200002,,,,,,,,,,,250.76759541700085,250.9330776250008,250.9330776250008,250.9330776250008,250.9330776250008,250.9330776250008,250.9330776250008,250.9330776250008,250.9330776250008,250.9330776250008,255.53558758300096,7,-7,1,5.0,3.0527467089996208,3.0,4.46436516599897,250.47613258300044,250.48272954200002,250.9330776250008,250.76757666699996,,,,,,,,250.47267979199933,250.4760862080002,None,,,,,,,,,,,202,bathroom,2,2024-03-16_15h37.42.145,image_similarity_rating,2023.2.3,None,2024-03-16 15h38.01.704909 +0100,
,121,139,440,440,stimuli/own/bathroom/121_bat.jpg,stimuli/own/bathroom/139_bat.jpg,,,,,,,,,0,11,11,439,255.5490685420009,,,,,,,,,,,255.83406966700022,255.99819741700048,255.99819741700048,255.99819741700048,255.99819741700048,255.99819741700048,255.99819741700048,255.99819741700048,255.99819741700048,255.99819741700048,260.55670654200003,7,-7,1,1.0,3.3416464170004474,3.0,4.522781707999457,255.53947379199963,255.5490685420009,255.99819741700048,255.83405608300018,,,,,,,,255.53583129199978,255.53942412499964,None,,,,,,,,,,,202,bathroom,2,2024-03-16_15h37.42.145,image_similarity_rating,2023.2.3,None,2024-03-16 15h38.01.704909 +0100,
,104,124,115,115,stimuli/own/bathroom/104_bat.jpg,stimuli/own/bathroom/124_bat.jpg,,,,,,,,,0,12,12,114,260.565694375,,,,,,,,,,,260.8509880420006,261.01633604200106,261.01633604200106,261.01633604200106,261.01633604200106,261.01633604200106,261.01633604200106,261.01633604200106,261.01633604200106,261.01633604200106,265.80606216699925,7,-7,1,5.0,2.8437416670003586,6.0,4.540794042000925,260.56040416699943,260.565694375,261.01633604200106,260.8509747499993,,,,,,,,260.5569362080005,260.56035729200084,None,,,,,,,,,,,202,bathroom,2,2024-03-16_15h37.42.145,image_similarity_rating,2023.2.3,None,2024-03-16 15h38.01.704909 +0100,
,117,124,349,349,stimuli/own/bathroom/117_bat.jpg,stimuli/own/bathroom/124_bat.jpg,,,,,,,,,0,13,13,348,265.81586504200095,,,,,,,,,,,266.1008198750005,266.26645104199997,266.26645104199997,266.26645104199997,266.26645104199997,266.26645104199997,266.26645104199997,266.26645104199997,266.26645104199997,266.26645104199997,272.49502120800025,-7,7,1,4.0,4.071591208001337,3.0,6.0688492089993815,265.80974383300054,265.81586504200095,266.26645104199997,266.100806208,,,,,,,,265.8062875830001,265.8096963749995,None,,,,,,,,,,,202,bathroom,2,2024-03-16_15h37.42.145,image_similarity_rating,2023.2.3,None,2024-03-16 15h38.01.704909 +0100,
,103,114,75,75,stimuli/own/bathroom/103_bat.jpg,stimuli/own/bathroom/114_bat.jpg,,,,,,,,,0,14,14,74,272.50064700000075,,,,,,,,,,,272.7842352080006,272.9502523329993,272.9502523329993,272.9502523329993,272.9502523329993,272.9502523329993,272.9502523329993,272.9502523329993,272.9502523329993,272.9502523329993,284.63516529200024,-7,7,1,4.0,2.5211363329999585,3.0,11.577984958999878,272.4987852920003,272.50064700000075,272.9502523329993,272.78422079200027,,,,,,,,272.4952454579998,272.4987382500003,None,,,,,,,,,,,202,bathroom,2,2024-03-16_15h37.42.145,image_similarity_rating,2023.2.3,None,2024-03-16 15h38.01.704909 +0100,
,111,119,224,224,stimuli/own/bathroom/111_bat.jpg,stimuli/own/bathroom/119_bat.jpg,,,,,,,,,0,15,15,223,284.6411146249993,,,,,,,,,,,284.93353820800075,285.09811954200086,285.09811954200086,285.09811954200086,285.09811954200086,285.09811954200086,285.09811954200086,285.09811954200086,285.09811954200086,285.09811954200086,291.06074216699926,-7,7,1,4.0,3.7169475829996372,2.0,5.812394875001701,284.6390249169999,284.6411146249993,285.09811954200086,284.93352366699946,,,,,,,,284.6353940000008,284.6389764579999,None,,,,,,,,,,,202,bathroom,2,2024-03-16_15h37.42.145,image_similarity_rating,2023.2.3,None,2024-03-16 15h38.01.704909 +0100,
,112,139,268,268,stimuli/own/bathroom/112_bat.jpg,stimuli/own/bathroom/139_bat.jpg,,,,,,,,,0,16,16,267,291.0677567500006,,,,,,,,,,,291.3545610830006,291.51903241699983,291.51903241699983,291.51903241699983,291.51903241699983,291.51903241699983,291.51903241699983,291.51903241699983,291.51903241699983,291.51903241699983,297.3767019170009,7,-7,1,4.0,3.8972041250017355,2.0,5.8237065829998755,291.06445258299937,291.0677567500006,291.51903241699983,291.3545507079998,,,,,,,,291.06096741700094,291.06440504199963,None,,,,,,,,,,,202,bathroom,2,2024-03-16_15h37.42.145,image_similarity_rating,2023.2.3,None,2024-03-16 15h38.01.704909 +0100,
,118,124,370,370,stimuli/own/bathroom/118_bat.jpg,stimuli/own/bathroom/124_bat.jpg,,,,,,,,,0,17,17,369,297.3992263330001,,,,,,,,,,,297.68336120800086,297.8484828750006,297.8484828750006,297.8484828750006,297.8484828750006,297.8484828750006,297.8484828750006,297.8484828750006,297.8484828750006,297.8484828750006,305.8822868749994,7,-7,1,2.0,5.631483000001026,3.0,8.027786167000158,297.3804782919997,297.3992263330001,,297.6833431670002,,,,,,,,297.3769240420006,297.3804314169993,None,,,,,,,,,,,202,bathroom,2,2024-03-16_15h37.42.145,image_similarity_rating,2023.2.3,None,2024-03-16 15h38.01.704909 +0100,
,112,134,263,263,stimuli/own/bathroom/112_bat.jpg,stimuli/own/bathroom/134_bat.jpg,,,,,,,,,0,18,18,262,305.88843716700103,,,,,,,,,,,306.1836332080002,306.3496911250004,306.3496911250004,306.3496911250004,306.3496911250004,306.3496911250004,306.3496911250004,306.3496911250004,306.3496911250004,306.3496911250004,313.4812794169993,-7,7,1,1.0,4.997398917001192,4.0,7.069342249998954,305.8861920420004,305.88843716700103,306.3496911250004,306.18361520799954,,,,,,,,305.88251200000013,305.88614495799993,None,,,,,,,,,,,202,bathroom,2,2024-03-16_15h37.42.145,image_similarity_rating,2023.2.3,None,2024-03-16 15h38.01.704909 +0100,
,118,132,377,377,stimuli/own/bathroom/118_bat.jpg,stimuli/own/bathroom/132_bat.jpg,,,,,,,,,0,19,19,376,313.486883167001,,,,,,,,,,,313.7724673749999,313.9354842499997,313.9354842499997,313.9354842499997,313.9354842499997,313.9354842499997,313.9354842499997,313.9354842499997,313.9354842499997,313.9354842499997,322.2816487079999,7,-7,1,3.0,4.467856875000507,3.0,8.103309167001498,313.48499116700077,313.486883167001,313.9354842499997,313.77245675000086,,,,,,,,313.4815152499996,313.4849439999998,None,,,,,,,,,,,202,bathroom,2,2024-03-16_15h37.42.145,image_similarity_rating,2023.2.3,None,2024-03-16 15h38.01.704909 +0100,
,136,139,583,600,stimuli/own/bathroom/136_bat.jpg,stimuli/own/bathroom/139_bat.jpg,,,,,,,,,0,20,20,599,322.28762545800055,,,,,,,,,,,322.5710920830006,322.73599354200087,322.73599354200087,322.73599354200087,322.73599354200087,322.73599354200087,322.73599354200087,322.73599354200087,322.73599354200087,322.73599354200087,328.82349087500006,-7,7,1,2.0,3.974131208000472,2.0,6.001412292000168,322.28548583299926,322.28762545800055,322.73599354200087,322.57108170799984,,,,,,,,322.28187091700056,322.28543895800067,None,,,,,,,,,,,202,bathroom,2,2024-03-16_15h37.42.145,image_similarity_rating,2023.2.3,None,2024-03-16 15h38.01.704909 +0100,
,131,138,556,556,stimuli/own/bathroom/131_bat.jpg,stimuli/own/bathroom/138_bat.jpg,,,,,,,,,0,21,21,555,328.83209279199946,,,,,,,,,,,329.11674395800037,329.2890909580001,329.2890909580001,329.2890909580001,329.2890909580001,329.2890909580001,329.2890909580001,329.2890909580001,329.2890909580001,329.2890909580001,335.0353408329993,-7,7,1,1.0,3.6418828749992826,4.0,5.6888910830002715,328.82729270799973,328.83209279199946,329.2890909580001,329.11672737499975,,,,,,,,328.8237416669999,328.82724529200095,None,,,,,,,,,,,202,bathroom,2,2024-03-16_15h37.42.145,image_similarity_rating,2023.2.3,None,2024-03-16 15h38.01.704909 +0100,
,109,132,209,209,stimuli/own/bathroom/109_bat.jpg,stimuli/own/bathroom/132_bat.jpg,,,,,,,,,0,22,22,208,335.04123224999967,,,,,,,,,,,335.3333938329997,335.4991314580002,335.4991314580002,335.4991314580002,335.4991314580002,335.4991314580002,335.4991314580002,335.4991314580002,335.4991314580002,335.4991314580002,340.56042549999984,7,-7,1,2.0,3.0667654579992814,4.0,5.026126708000447,335.0391380000001,335.04123224999967,335.4991314580002,335.33337525000024,,,,,,,,335.03557266700045,335.03908958300053,None,,,,,,,,,,,202,bathroom,2,2024-03-16_15h37.42.145,image_similarity_rating,2023.2.3,None,2024-03-16 15h38.01.704909 +0100,
,101,117,12,12,stimuli/own/bathroom/101_bat.jpg,stimuli/own/bathroom/117_bat.jpg,,,,,,,,,0,23,23,11,340.56684312499965,,,,,,,,,,,340.85094412500075,341.016550792001,341.016550792001,341.016550792001,341.016550792001,341.016550792001,341.016550792001,341.016550792001,341.016550792001,341.016550792001,354.8552546669998,-7,7,1,4.0,9.107469791000767,6.0,13.842701207999198,340.56409087500106,340.56684312499965,341.016550792001,340.85093029199925,,,,,,,,340.56064524999965,340.56404354200095,None,,,,,,,,,,,202,bathroom,2,2024-03-16_15h37.42.145,image_similarity_rating,2023.2.3,None,2024-03-16 15h38.01.704909 +0100,
,105,121,142,142,stimuli/own/bathroom/105_bat.jpg,stimuli/own/bathroom/121_bat.jpg,,,,,,,,,0,24,24,141,354.8658434579993,,,,,,,,,,,355.15066670799933,355.31571862500095,355.31571862500095,355.31571862500095,355.31571862500095,355.31571862500095,355.31571862500095,355.31571862500095,355.31571862500095,355.31571862500095,365.159788125,7,-7,1,2.0,7.707541292000315,5.0,9.718559499999174,354.85904658300024,354.8658434579993,355.31571862500095,355.15065233300083,,,,,,,,354.85547837500053,354.8589998330008,None,,,,,,,,,,,202,bathroom,2,2024-03-16_15h37.42.145,image_similarity_rating,2023.2.3,None,2024-03-16 15h38.01.704909 +0100,
,101,120,15,15,stimuli/own/bathroom/101_bat.jpg,stimuli/own/bathroom/120_bat.jpg,,,,,,,,,0,25,25,14,365.1652555420005,,,,,,,,,,,365.45080925,365.6155526250004,365.6155526250004,365.6155526250004,365.6155526250004,365.6155526250004,365.6155526250004,365.6155526250004,365.6155526250004,365.6155526250004,370.4478992919994,-7,7,1,2.0,3.721671792000052,5.0,4.7568220409993955,365.1634721249993,365.1652555420005,365.6155526250004,365.4507949580002,,,,,,,,365.160010167001,365.16342537499986,None,,,,,,,,,,,202,bathroom,2,2024-03-16_15h37.42.145,image_similarity_rating,2023.2.3,None,2024-03-16 15h38.01.704909 +0100,
,126,134,510,510,stimuli/own/bathroom/126_bat.jpg,stimuli/own/bathroom/134_bat.jpg,,,,,,,,,0,26,26,509,370.45365191699966,,,,,,,,,,,370.7500542079997,370.9193126249993,370.9193126249993,370.9193126249993,370.9193126249993,370.9193126249993,370.9193126249993,370.9193126249993,370.9193126249993,370.9193126249993,375.7098387919996,-7,7,1,5.0,3.0568323339994095,6.0,4.614383583000745,370.45159420799973,370.45365191699966,370.9193126249993,370.75003820799975,,,,,,,,370.44811820799987,370.4515468749996,None,,,,,,,,,,,202,bathroom,2,2024-03-16_15h37.42.145,image_similarity_rating,2023.2.3,None,2024-03-16 15h38.01.704909 +0100,
,101,132,26,26,stimuli/own/bathroom/101_bat.jpg,stimuli/own/bathroom/132_bat.jpg,,,,,,,,,0,27,27,25,375.7323891670003,,,,,,,,,,,376.0165264999996,376.1817344579995,376.1817344579995,376.1817344579995,376.1817344579995,376.1817344579995,376.1817344579995,376.1817344579995,376.1817344579995,376.1817344579995,387.5677190000006,7,-7,1,4.0,3.5671212500001275,5.0,11.312347167000553,375.713542042,375.7323891670003,,376.0165075420009,,,,,,,,375.71008466700005,375.71349533300054,None,,,,,,,,,,,202,bathroom,2,2024-03-16_15h37.42.145,image_similarity_rating,2023.2.3,None,2024-03-16 15h38.01.704909 +0100,
,111,126,231,231,stimuli/own/bathroom/111_bat.jpg,stimuli/own/bathroom/126_bat.jpg,,,,,,,,,0,28,28,230,387.5734370829996,,,,,,,,,,,387.86746366700027,388.0316222500005,388.0316222500005,388.0316222500005,388.0316222500005,388.0316222500005,388.0316222500005,388.0316222500005,388.0316222500005,388.0316222500005,393.61768270799985,7,-7,1,4.0,4.81908733399905,2.0,5.600026541000261,387.57150745800027,387.5734370829996,388.0316222500005,387.8674496250005,,,,,,,,387.5679395829993,387.57146004199967,None,,,,,,,,,,,202,bathroom,2,2024-03-16_15h37.42.145,image_similarity_rating,2023.2.3,None,2024-03-16 15h38.01.704909 +0100,
,122,130,449,449,stimuli/own/bathroom/122_bat.jpg,stimuli/own/bathroom/130_bat.jpg,,,,,,,,,0,29,29,448,393.6232585830003,,,,,,,,,,,393.91682033300094,394.0818695420003,394.0818695420003,394.0818695420003,394.0818695420003,394.0818695420003,394.0818695420003,394.0818695420003,394.0818695420003,394.0818695420003,397.93108891700103,7,-7,1,2.0,2.55585608399997,2.0,3.612644666000051,393.6213305000001,393.6232585830003,394.0818695420003,393.9168070830001,,,,,,,,393.6179015830003,393.6212835000006,None,,,,,,,,,,,202,bathroom,2,2024-03-16_15h37.42.145,image_similarity_rating,2023.2.3,None,2024-03-16 15h38.01.704909 +0100,
,111,138,241,241,stimuli/own/bathroom/111_bat.jpg,stimuli/own/bathroom/138_bat.jpg,,,,,,,,,0,30,30,240,397.9368217499996,,,,,,,,,,,398.2200225830002,398.38416654200046,398.38416654200046,398.38416654200046,398.38416654200046,398.38416654200046,398.38416654200046,398.38416654200046,398.38416654200046,398.38416654200046,403.1676784169995,7,-7,1,1.0,2.7635147080000024,5.0,4.6969579579999845,397.93489008300094,397.9368217499996,398.38416654200046,398.2200085830009,,,,,,,,397.93131750000066,397.93484304199956,None,,,,,,,,,,,202,bathroom,2,2024-03-16_15h37.42.145,image_similarity_rating,2023.2.3,None,2024-03-16 15h38.01.704909 +0100,
,119,130,395,395,stimuli/own/bathroom/119_bat.jpg,stimuli/own/bathroom/130_bat.jpg,,,,,,,,,0,31,31,394,403.17326241699993,,,,,,,,,,,403.4671080829994,403.63355466699977,403.63355466699977,403.63355466699977,403.63355466699977,403.63355466699977,403.63355466699977,403.63355466699977,403.63355466699977,403.63355466699977,411.85263337499964,-7,7,1,3.0,3.1383727499996894,1.0,8.097004082999774,403.17133854200074,403.17326241699993,403.63355466699977,403.4670945830003,,,,,,,,403.16789812500065,403.1712915419994,None,,,,,,,,,,,202,bathroom,2,2024-03-16_15h37.42.145,image_similarity_rating,2023.2.3,None,2024-03-16 15h38.01.704909 +0100,
,125,140,503,503,stimuli/own/bathroom/125_bat.jpg,stimuli/own/bathroom/140_bat.jpg,,,,,,,,,0,32,32,502,411.8651827499998,,,,,,,,,,,412.15004883300026,412.31528604199957,412.31528604199957,412.31528604199957,412.31528604199957,412.31528604199957,412.31528604199957,412.31528604199957,412.31528604199957,412.31528604199957,419.4547699579998,-7,7,1,2.0,2.9554052500006947,5.0,6.96704891599984,411.8563393330005,411.8651827499998,412.31528604199957,412.15003550000074,,,,,,,,411.8528557080008,411.85629233300097,None,,,,,,,,,,,202,bathroom,2,2024-03-16_15h37.42.145,image_similarity_rating,2023.2.3,None,2024-03-16 15h38.01.704909 +0100,
,130,140,549,549,stimuli/own/bathroom/130_bat.jpg,stimuli/own/bathroom/140_bat.jpg,,,,,,,,,0,33,33,548,419.46509487500043,,,,,,,,,,,419.7500314579993,419.91487408300054,419.91487408300054,419.91487408300054,419.91487408300054,419.91487408300054,419.91487408300054,419.91487408300054,419.91487408300054,419.91487408300054,429.1192205419993,7,-7,1,3.0,4.797254666000299,5.0,9.151906541001154,419.45857445799993,419.46509487500043,419.91487408300054,419.75001237499964,,,,,,,,419.45499087499957,419.4585271670003,None,,,,,,,,,,,202,bathroom,2,2024-03-16_15h37.42.145,image_similarity_rating,2023.2.3,None,2024-03-16 15h38.01.704909 +0100,
,105,126,147,147,stimuli/own/bathroom/105_bat.jpg,stimuli/own/bathroom/126_bat.jpg,,,,,,,,,0,34,34,146,429.1322828329994,,,,,,,,,,,429.4172962920002,429.582330833,429.582330833,429.582330833,429.582330833,429.582330833,429.582330833,429.582330833,429.582330833,429.582330833,439.84437179199995,-7,7,1,1.0,7.743980792000002,6.0,10.069396124999912,429.12292320800043,429.1322828329994,429.582330833,429.4172822920009,,,,,,,,429.11944208299974,429.1228698750001,None,,,,,,,,,,,202,bathroom,2,2024-03-16_15h37.42.145,image_similarity_rating,2023.2.3,None,2024-03-16 15h38.01.704909 +0100,
,135,140,579,579,stimuli/own/bathroom/135_bat.jpg,stimuli/own/bathroom/140_bat.jpg,,,,,,,,,0,35,35,578,439.850153708001,,,,,,,,,,,440.13704704200063,440.3012826670001,440.3012826670001,440.3012826670001,440.3012826670001,440.3012826670001,440.3012826670001,440.3012826670001,440.3012826670001,440.3012826670001,446.75083325000014,-7,7,1,4.0,4.0297650000011345,7.0,6.287019707999207,439.848190875,439.850153708001,440.3012826670001,440.13703341700057,,,,,,,,439.844593875001,439.84814420800103,None,,,,,,,,,,,202,bathroom,2,2024-03-16_15h37.42.145,image_similarity_rating,2023.2.3,None,2024-03-16 15h38.01.704909 +0100,
,120,131,415,415,stimuli/own/bathroom/120_bat.jpg,stimuli/own/bathroom/131_bat.jpg,,,,,,,,,0,36,36,414,446.7567015830009,,,,,,,,,,,447.0498134999998,447.2151947080001,447.2151947080001,447.2151947080001,447.2151947080001,447.2151947080001,447.2151947080001,447.2151947080001,447.2151947080001,447.2151947080001,453.7441206250005,-7,7,1,1.0,4.752761040999758,3.0,6.394669709001391,446.7546404170007,446.7567015830009,447.2151947080001,447.0497995000005,,,,,,,,446.7510562919997,446.75459316699926,None,,,,,,,,,,,202,bathroom,2,2024-03-16_15h37.42.145,image_similarity_rating,2023.2.3,None,2024-03-16 15h38.01.704909 +0100,
,117,137,360,360,stimuli/own/bathroom/117_bat.jpg,stimuli/own/bathroom/137_bat.jpg,,,,,,,,,0,37,37,359,453.7496855419995,,,,,,,,,,,454.033109375001,454.20391374999963,454.20391374999963,454.20391374999963,454.20391374999963,454.20391374999963,454.20391374999963,454.20391374999963,454.20391374999963,454.20391374999963,462.0937205829996,-7,7,1,3.0,6.180880292000438,6.0,7.765417583999806,453.74781283300035,453.7496855419995,454.20391374999963,454.0330927920004,,,,,,,,453.7443414999998,453.7477650000001,None,,,,,,,,,,,202,bathroom,2,2024-03-16_15h37.42.145,image_similarity_rating,2023.2.3,None,2024-03-16 15h38.01.704909 +0100,
,106,116,166,166,stimuli/own/bathroom/106_bat.jpg,stimuli/own/bathroom/116_bat.jpg,,,,,,,,,0,38,38,165,462.09976545800055,,,,,,,,,,,462.383031542,462.55439070800094,462.55439070800094,462.55439070800094,462.55439070800094,462.55439070800094,462.55439070800094,462.55439070800094,462.55439070800094,462.55439070800094,471.53449654200085,7,-7,1,3.0,6.321579125000426,3.0,8.839453500000673,462.09742579200065,462.09976545800055,462.55439070800094,462.3830110830004,,,,,,,,462.093942042,462.0973606250009,None,,,,,,,,,,,202,bathroom,2,2024-03-16_15h37.42.145,image_similarity_rating,2023.2.3,None,2024-03-16 15h38.01.704909 +0100,
,127,136,524,524,stimuli/own/bathroom/127_bat.jpg,stimuli/own/bathroom/136_bat.jpg,,,,,,,,,0,39,39,523,471.54054904199984,,,,,,,,,,,471.8338577499999,471.9985920830004,471.9985920830004,471.9985920830004,471.9985920830004,471.9985920830004,471.9985920830004,471.9985920830004,471.9985920830004,471.9985920830004,480.65976774999945,7,-7,1,2.0,6.23294604199873,5.0,8.535621041999548,471.53826166699946,471.54054904199984,471.9985920830004,471.8338399580007,,,,,,,,471.534725083,471.53821379200053,None,,,,,,,,,,,202,bathroom,2,2024-03-16_15h37.42.145,image_similarity_rating,2023.2.3,None,2024-03-16 15h38.01.704909 +0100,
,131,139,557,557,stimuli/own/bathroom/131_bat.jpg,stimuli/own/bathroom/139_bat.jpg,,,,,,,,,0,40,40,556,480.68163016700055,,,,,,,,,,,480.9659122920002,481.1310572500006,481.1310572500006,481.1310572500006,481.1310572500006,481.1310572500006,481.1310572500006,481.1310572500006,481.1310572500006,481.1310572500006,487.46470554200096,7,-7,1,2.0,3.342117749998579,2.0,6.17500658300014,480.6634372080007,480.68163016700055,,480.9658925830008,,,,,,,,480.6599900420006,480.6633904999999,None,,,,,,,,,,,202,bathroom,2,2024-03-16_15h37.42.145,image_similarity_rating,2023.2.3,None,2024-03-16 15h38.01.704909 +0100,
,109,114,193,193,stimuli/own/bathroom/109_bat.jpg,stimuli/own/bathroom/114_bat.jpg,,,,,,,,,0,41,41,192,487.47059875000014,,,,,,,,,,,487.75455695799974,487.9180621249998,487.9180621249998,487.9180621249998,487.9180621249998,487.9180621249998,487.9180621249998,487.9180621249998,487.9180621249998,487.9180621249998,494.4642993329999,-7,7,1,2.0,4.620079833001,4.0,6.290420583000014,487.46852600000057,487.47059875000014,487.9180621249998,487.7545467500004,,,,,,,,487.46492670800035,487.46847929199976,None,,,,,,,,,,,202,bathroom,2,2024-03-16_15h37.42.145,image_similarity_rating,2023.2.3,None,2024-03-16 15h38.01.704909 +0100,
,117,125,350,350,stimuli/own/bathroom/117_bat.jpg,stimuli/own/bathroom/125_bat.jpg,,,,,,,,,0,42,42,349,494.4699167079998,,,,,,,,,,,494.7534058330002,494.91658166699926,494.91658166699926,494.91658166699926,494.91658166699926,494.91658166699926,494.91658166699926,494.91658166699926,494.91658166699926,494.91658166699926,500.31737395799973,-7,7,1,5.0,3.506019374999596,2.0,5.263234292000561,494.4680089169997,494.4699167079998,494.91658166699926,494.7533954169994,,,,,,,,494.4645217920006,494.4679609579998,None,,,,,,,,,,,202,bathroom,2,2024-03-16_15h37.42.145,image_similarity_rating,2023.2.3,None,2024-03-16 15h38.01.704909 +0100,
,120,136,419,419,stimuli/own/bathroom/120_bat.jpg,stimuli/own/bathroom/136_bat.jpg,,,,,,,,,0,43,43,418,500.3232008750001,,,,,,,,,,,500.61714550000033,500.7815587080004,500.7815587080004,500.7815587080004,500.7815587080004,500.7815587080004,500.7815587080004,500.7815587080004,500.7815587080004,500.7815587080004,507.6931178750001,-7,7,1,2.0,3.841300500000216,5.0,6.788036625001041,500.3212630830003,500.3232008750001,500.7815587080004,500.617128625001,,,,,,,,500.31761641699995,500.32121474999985,None,,,,,,,,,,,202,bathroom,2,2024-03-16_15h37.42.145,image_similarity_rating,2023.2.3,None,2024-03-16 15h38.01.704909 +0100,
,103,126,86,86,stimuli/own/bathroom/103_bat.jpg,stimuli/own/bathroom/126_bat.jpg,,,,,,,,,0,44,44,85,507.69952874999944,,,,,,,,,,,507.9828534999997,508.1498779579997,508.1498779579997,508.1498779579997,508.1498779579997,508.1498779579997,508.1498779579997,508.1498779579997,508.1498779579997,508.1498779579997,517.8171705830009,7,-7,1,5.0,6.221109707999858,5.0,8.37969775000056,507.6968045419999,507.69952874999944,508.1498779579997,507.98283837500094,,,,,,,,507.6933469579999,507.6967580420005,None,,,,,,,,,,,202,bathroom,2,2024-03-16_15h37.42.145,image_similarity_rating,2023.2.3,None,2024-03-16 15h38.01.704909 +0100,
,117,132,356,356,stimuli/own/bathroom/117_bat.jpg,stimuli/own/bathroom/132_bat.jpg,,,,,,,,,0,45,45,355,517.822591958,,,,,,,,,,,518.1171735829994,518.2838255000006,518.2838255000006,518.2838255000006,518.2838255000006,518.2838255000006,518.2838255000006,518.2838255000006,518.2838255000006,518.2838255000006,535.5008592079994,-7,7,1,6.0,12.931991333000042,3.0,16.98886916599986,517.8208392920005,517.822591958,518.2838255000006,518.1171575000008,,,,,,,,517.8173940830002,517.820792333001,None,,,,,,,,,,,202,bathroom,2,2024-03-16_15h37.42.145,image_similarity_rating,2023.2.3,None,2024-03-16 15h38.01.704909 +0100,
,103,138,96,96,stimuli/own/bathroom/103_bat.jpg,stimuli/own/bathroom/138_bat.jpg,,,,,,,,,0,46,46,95,535.5065571249997,,,,,,,,,,,535.7998802500006,535.9652502499994,535.9652502499994,535.9652502499994,535.9652502499994,535.9652502499994,535.9652502499994,535.9652502499994,535.9652502499994,535.9652502499994,544.3969352919994,7,-7,1,2.0,7.332845291999547,6.0,8.456394374999945,535.5046202920003,535.5065571249997,535.9652502499994,535.7998652919996,,,,,,,,535.5010879580004,535.504572625001,None,,,,,,,,,,,202,bathroom,2,2024-03-16_15h37.42.145,image_similarity_rating,2023.2.3,None,2024-03-16 15h38.01.704909 +0100,
,105,117,138,596,stimuli/own/bathroom/105_bat.jpg,stimuli/own/bathroom/117_bat.jpg,,,,,,,,,0,47,47,595,544.4025027080006,,,,,,,,,,,544.6862627499995,544.8497420000003,544.8497420000003,544.8497420000003,544.8497420000003,544.8497420000003,544.8497420000003,544.8497420000003,544.8497420000003,544.8497420000003,552.1715131250003,7,-7,1,4.0,4.2375090000005,4.0,7.246952917001181,544.4007261250008,544.4025027080006,544.8497420000003,544.6862490830008,,,,,,,,544.397188500001,544.4006790420008,None,,,,,,,,,,,202,bathroom,2,2024-03-16_15h37.42.145,image_similarity_rating,2023.2.3,None,2024-03-16 15h38.01.704909 +0100,
,127,140,528,528,stimuli/own/bathroom/127_bat.jpg,stimuli/own/bathroom/140_bat.jpg,,,,,,,,,0,48,48,527,552.1813720000009,,,,,,,,,,,552.4665220419993,552.631113292,552.631113292,552.631113292,552.631113292,552.631113292,552.631113292,552.631113292,552.631113292,552.631113292,565.5721515000005,-7,7,1,4.0,11.541832208000415,2.0,12.802416791999349,552.1752991249996,552.1813720000009,552.631113292,552.4665090420003,,,,,,,,552.1717337499995,552.1752524170006,None,,,,,,,,,,,202,bathroom,2,2024-03-16_15h37.42.145,image_similarity_rating,2023.2.3,None,2024-03-16 15h38.01.704909 +0100,
,105,111,133,133,stimuli/own/bathroom/105_bat.jpg,stimuli/own/bathroom/111_bat.jpg,,,,,,,,,0,49,49,132,565.581228250001,,,,,,,,,,,565.866158750001,566.0292560830003,566.0292560830003,566.0292560830003,566.0292560830003,566.0292560830003,566.0292560830003,566.0292560830003,566.0292560830003,566.0292560830003,572.9352176249995,-7,7,1,2.0,4.515802874999281,2.0,6.718430375000025,565.5759426250006,565.581228250001,566.0292560830003,565.8661453330005,,,,,,,,565.5723848750004,565.5758960830008,None,,,,,,,,,,,202,bathroom,2,2024-03-16_15h37.42.145,image_similarity_rating,2023.2.3,None,2024-03-16 15h38.01.704909 +0100,
,127,139,527,527,stimuli/own/bathroom/127_bat.jpg,stimuli/own/bathroom/139_bat.jpg,,,,,,,,,0,50,50,526,572.9479785420008,,,,,,,,,,,573.2336839170002,573.3975616669995,573.3975616669995,573.3975616669995,573.3975616669995,573.3975616669995,573.3975616669995,573.3975616669995,573.3975616669995,573.3975616669995,581.817326542001,7,-7,1,6.0,6.49148491699998,2.0,8.263283458001752,572.9388949580007,572.9479785420008,573.3975616669995,573.2336706250007,,,,,,,,572.9354389580003,572.9388482079994,None,,,,,,,,,,,202,bathroom,2,2024-03-16_15h37.42.145,image_similarity_rating,2023.2.3,None,2024-03-16 15h38.01.704909 +0100,
,102,106,38,38,stimuli/own/bathroom/102_bat.jpg,stimuli/own/bathroom/106_bat.jpg,,,,,,,,,0,51,51,37,581.823298917001,,,,,,,,,,,582.1158142919994,582.2814916669995,582.2814916669995,582.2814916669995,582.2814916669995,582.2814916669995,582.2814916669995,582.2814916669995,582.2814916669995,582.2814916669995,596.2016083750004,7,-7,1,4.0,9.997563749999244,3.0,13.766354874998797,581.8212061249997,581.823298917001,582.2814916669995,582.1157993329998,,,,,,,,581.8175542919998,581.8211587919996,None,,,,,,,,,,,202,bathroom,2,2024-03-16_15h37.42.145,image_similarity_rating,2023.2.3,None,2024-03-16 15h38.01.704909 +0100,
,103,123,83,83,stimuli/own/bathroom/103_bat.jpg,stimuli/own/bathroom/123_bat.jpg,,,,,,,,,0,52,52,82,596.2148246249999,,,,,,,,,,,596.4990687919999,596.6663995830004,596.6663995830004,596.6663995830004,596.6663995830004,596.6663995830004,596.6663995830004,596.6663995830004,596.6663995830004,596.6663995830004,602.679890667001,-7,7,1,2.0,4.52086962499925,6.0,5.75497812499998,596.2054736669998,596.2148246249999,596.6663995830004,596.4990529170009,,,,,,,,596.2018401669993,596.2054251669997,None,,,,,,,,,,,202,bathroom,2,2024-03-16_15h37.42.145,image_similarity_rating,2023.2.3,None,2024-03-16 15h38.01.704909 +0100,
,101,104,3,3,stimuli/own/bathroom/101_bat.jpg,stimuli/own/bathroom/104_bat.jpg,,,,,,,,,0,53,53,2,602.6855082500006,,,,,,,,,,,602.9708850000006,603.1360382919993,603.1360382919993,603.1360382919993,603.1360382919993,603.1360382919993,603.1360382919993,603.1360382919993,603.1360382919993,603.1360382919993,615.0182817919995,7,-7,1,4.0,10.719711250001637,6.0,11.822719916001006,602.6835837079998,602.6855082500006,603.1360382919993,602.970868417,,,,,,,,602.6801199170004,602.6835371670004,None,,,,,,,,,,,202,bathroom,2,2024-03-16_15h37.42.145,image_similarity_rating,2023.2.3,None,2024-03-16 15h38.01.704909 +0100,
,109,122,200,200,stimuli/own/bathroom/109_bat.jpg,stimuli/own/bathroom/122_bat.jpg,,,,,,,,,0,54,54,199,615.0310035000002,,,,,,,,,,,615.316415542,615.4840476669997,615.4840476669997,615.4840476669997,615.4840476669997,615.4840476669997,615.4840476669997,615.4840476669997,615.4840476669997,615.4840476669997,623.5514853330005,7,-7,1,3.0,2.7628366670014657,1.0,7.709876582999641,615.022157708001,615.0310035000002,615.4840476669997,615.3164002079993,,,,,,,,615.018514333,615.0221084580007,None,,,,,,,,,,,202,bathroom,2,2024-03-16_15h37.42.145,image_similarity_rating,2023.2.3,None,2024-03-16 15h38.01.704909 +0100,
,127,132,521,521,stimuli/own/bathroom/127_bat.jpg,stimuli/own/bathroom/132_bat.jpg,,,,,,,,,0,55,55,520,623.5573884170008,,,,,,,,,,,623.8498562080003,624.0154892080009,624.0154892080009,624.0154892080009,624.0154892080009,624.0154892080009,624.0154892080009,624.0154892080009,624.0154892080009,624.0154892080009,629.3728467920009,-7,7,1,1.0,3.8665212920004706,1.0,5.140446957999302,623.5552871250002,623.5573884170008,624.0154892080009,623.8498363750005,,,,,,,,623.5517199999995,623.5552368749995,None,,,,,,,,,,,202,bathroom,2,2024-03-16_15h37.42.145,image_similarity_rating,2023.2.3,None,2024-03-16 15h38.01.704909 +0100,
,109,124,202,202,stimuli/own/bathroom/109_bat.jpg,stimuli/own/bathroom/124_bat.jpg,,,,,,,,,0,56,56,201,629.3807950829996,,,,,,,,,,,629.666651042,629.8320344170006,629.8320344170006,629.8320344170006,629.8320344170006,629.8320344170006,629.8320344170006,629.8320344170006,629.8320344170006,629.8320344170006,637.0222331669993,7,-7,1,4.0,5.346221750000041,4.0,6.9659478749999835,629.3765466250006,629.3807950829996,629.8320344170006,629.66663625,,,,,,,,629.3730688750002,629.3765002500004,None,,,,,,,,,,,202,bathroom,2,2024-03-16_15h37.42.145,image_similarity_rating,2023.2.3,None,2024-03-16 15h38.01.704909 +0100,
,102,138,64,64,stimuli/own/bathroom/102_bat.jpg,stimuli/own/bathroom/138_bat.jpg,,,,,,,,,0,57,57,63,637.0308652919994,,,,,,,,,,,637.3162694170005,637.481443875,637.481443875,637.481443875,637.481443875,637.481443875,637.481443875,637.481443875,637.481443875,637.481443875,641.5687420419999,-7,7,1,5.0,2.413666624999678,4.0,3.960415749999811,637.0259152920007,637.0308652919994,637.481443875,637.3162560830006,,,,,,,,637.0224522919998,637.0258683749998,None,,,,,,,,,,,202,bathroom,2,2024-03-16_15h37.42.145,image_similarity_rating,2023.2.3,None,2024-03-16 15h38.01.704909 +0100,
,134,137,570,570,stimuli/own/bathroom/134_bat.jpg,stimuli/own/bathroom/137_bat.jpg,,,,,,,,,0,58,58,569,641.580966042,,,,,,,,,,,641.866136083001,642.0322334579996,642.0322334579996,642.0322334579996,642.0322334579996,642.0322334579996,642.0322334579996,642.0322334579996,642.0322334579996,642.0322334579996,650.217432458001,7,-7,1,5.0,3.8745110840009147,4.0,8.01824624999972,641.5724462920007,641.580966042,642.0322334579996,641.8661215829998,,,,,,,,641.5689784999995,641.5723995000008,None,,,,,,,,,,,202,bathroom,2,2024-03-16_15h37.42.145,image_similarity_rating,2023.2.3,None,2024-03-16 15h38.01.704909 +0100,
,126,135,511,511,stimuli/own/bathroom/126_bat.jpg,stimuli/own/bathroom/135_bat.jpg,,,,,,,,,0,59,59,510,650.2310006250009,,,,,,,,,,,650.5155130420007,650.683348083001,650.683348083001,650.683348083001,650.683348083001,650.683348083001,650.683348083001,650.683348083001,650.683348083001,650.683348083001,659.768268875001,7,-7,1,5.0,6.121431333000146,4.0,8.904211999999461,650.2214129999993,650.2310006250009,650.683348083001,650.5154824580004,,,,,,,,650.2176655830008,650.2213636249999,None,,,,,,,,,,,202,bathroom,2,2024-03-16_15h37.42.145,image_similarity_rating,2023.2.3,None,2024-03-16 15h38.01.704909 +0100,
,123,124,460,460,stimuli/own/bathroom/123_bat.jpg,stimuli/own/bathroom/124_bat.jpg,,,,,,,,,0,60,60,459,659.7808657500009,,,,,,,,,,,660.0656112079996,660.2291289170007,660.2291289170007,660.2291289170007,660.2291289170007,660.2291289170007,660.2291289170007,660.2291289170007,660.2291289170007,660.2291289170007,667.0430167499999,-7,7,1,5.0,5.6646877090006456,5.0,6.58656154199889,659.7720684579999,659.7808657500009,660.2291289170007,660.0656006669997,,,,,,,,659.7685028750002,659.772019,None,,,,,,,,,,,202,bathroom,2,2024-03-16_15h37.42.145,image_similarity_rating,2023.2.3,None,2024-03-16 15h38.01.704909 +0100,
,119,129,394,394,stimuli/own/bathroom/119_bat.jpg,stimuli/own/bathroom/129_bat.jpg,,,,,,,,,0,61,61,393,667.0488722499995,,,,,,,,,,,667.3329504169997,667.4980515829993,667.4980515829993,667.4980515829993,667.4980515829993,667.4980515829993,667.4980515829993,667.4980515829993,667.4980515829993,667.4980515829993,673.4020607080001,7,-7,1,6.0,3.7382406249998894,2.0,5.7094049169991195,667.0468190829997,667.0488722499995,667.4980515829993,667.3329324170008,,,,,,,,667.043236417001,667.0467611250006,None,,,,,,,,,,,202,bathroom,2,2024-03-16_15h37.42.145,image_similarity_rating,2023.2.3,None,2024-03-16 15h38.01.704909 +0100,
,116,127,330,330,stimuli/own/bathroom/116_bat.jpg,stimuli/own/bathroom/127_bat.jpg,,,,,,,,,0,62,62,329,673.4142371670005,,,,,,,,,,,673.6988426669996,673.8647306670009,673.8647306670009,673.8647306670009,673.8647306670009,673.8647306670009,673.8647306670009,673.8647306670009,673.8647306670009,673.8647306670009,682.1007357920007,-7,7,1,6.0,5.83088725000016,2.0,7.8478814589998365,673.406012083,673.4142371670005,673.8647306670009,673.6988237919995,,,,,,,,673.4022953330004,673.4059620829994,None,,,,,,,,,,,202,bathroom,2,2024-03-16_15h37.42.145,image_similarity_rating,2023.2.3,None,2024-03-16 15h38.01.704909 +0100,
,122,131,450,450,stimuli/own/bathroom/122_bat.jpg,stimuli/own/bathroom/131_bat.jpg,,,,,,,,,0,63,63,449,682.1063985420005,,,,,,,,,,,683.5820548749998,683.7567241670004,683.7567241670004,683.7567241670004,683.7567241670004,683.7567241670004,683.7567241670004,683.7567241670004,683.7567241670004,683.7567241670004,694.654104792,7,-7,2,4.0,9.218546958998559,6.0,10.599802749999071,683.2858554169998,683.2893404580009,683.7567241670004,683.5820340000009,,,,,,,,682.1009588329998,683.2842221669998,space,682.1063985420005,1.177552041999661,None,,,,,,,,202,bathroom,2,2024-03-16_15h37.42.145,image_similarity_rating,2023.2.3,None,2024-03-16 15h38.01.704909 +0100,
,104,131,121,615,stimuli/own/bathroom/104_bat.jpg,stimuli/own/bathroom/131_bat.jpg,,,,,,,,,0,64,64,614,694.6645616669994,,,,,,,,,,,694.9486825000004,695.116549458,695.116549458,695.116549458,695.116549458,695.116549458,695.116549458,695.116549458,695.116549458,695.116549458,700.3839939999998,7,-7,2,1.0,3.0567547919999924,1.0,5.092940915999861,694.6582995829995,694.6645616669994,695.116549458,694.9486663330008,,,,,,,,694.6543281670001,694.6582522919998,None,,,,,,,,,,,202,bathroom,2,2024-03-16_15h37.42.145,image_similarity_rating,2023.2.3,None,2024-03-16 15h38.01.704909 +0100,
,120,129,413,413,stimuli/own/bathroom/120_bat.jpg,stimuli/own/bathroom/129_bat.jpg,,,,,,,,,0,65,65,412,700.3897464580004,,,,,,,,,,,700.6828929580006,700.8488217920003,700.8488217920003,700.8488217920003,700.8488217920003,700.8488217920003,700.8488217920003,700.8488217920003,700.8488217920003,700.8488217920003,713.8875810829995,7,-7,2,6.0,3.6596450840006582,6.0,13.001263250000193,700.3876643750009,700.3897464580004,700.8488217920003,700.682877833,,,,,,,,700.384216167,700.3876185419995,None,,,,,,,,,,,202,bathroom,2,2024-03-16_15h37.42.145,image_similarity_rating,2023.2.3,None,2024-03-16 15h38.01.704909 +0100,
,127,141,529,529,stimuli/own/bathroom/127_bat.jpg,stimuli/own/bathroom/141_bat.jpg,,,,,,,,,0,66,66,528,713.897422375001,,,,,,,,,,,714.1831445829994,714.3475446249995,714.3475446249995,714.3475446249995,714.3475446249995,714.3475446249995,714.3475446249995,714.3475446249995,714.3475446249995,714.3475446249995,721.2430975000007,-7,7,2,3.0,4.887583416999405,2.0,6.794693332998577,713.8913159999993,713.897422375001,714.3475446249995,714.1831303750005,,,,,,,,713.8878015000009,713.8912700000001,None,,,,,,,,,,,202,bathroom,2,2024-03-16_15h37.42.145,image_similarity_rating,2023.2.3,None,2024-03-16 15h38.01.704909 +0100,
,102,121,49,49,stimuli/own/bathroom/102_bat.jpg,stimuli/own/bathroom/121_bat.jpg,,,,,,,,,0,67,67,48,721.2487376669997,,,,,,,,,,,721.5323761670006,721.6973791670007,721.6973791670007,721.6973791670007,721.6973791670007,721.6973791670007,721.6973791670007,721.6973791670007,721.6973791670007,721.6973791670007,727.151453542001,-7,7,2,2.0,3.320480124999449,2.0,5.096476832999542,721.2468210000006,721.2487376669997,721.6973791670007,721.5323627920006,,,,,,,,721.2433156669995,721.246774917001,None,,,,,,,,,,,202,bathroom,2,2024-03-16_15h37.42.145,image_similarity_rating,2023.2.3,None,2024-03-16 15h38.01.704909 +0100,
,116,139,340,340,stimuli/own/bathroom/116_bat.jpg,stimuli/own/bathroom/139_bat.jpg,,,,,,,,,0,68,68,339,727.163952500001,,,,,,,,,,,727.4494274579993,727.6142177080001,727.6142177080001,727.6142177080001,727.6142177080001,727.6142177080001,727.6142177080001,727.6142177080001,727.6142177080001,727.6142177080001,732.8371204579998,7,-7,2,5.0,3.2052325829990878,6.0,4.925251874999958,727.1551544169997,727.163952500001,727.6142177080001,727.4494146670004,,,,,,,,727.151672,727.1551077500008,None,,,,,,,,,,,202,bathroom,2,2024-03-16_15h37.42.145,image_similarity_rating,2023.2.3,None,2024-03-16 15h38.01.704909 +0100,
,113,118,274,274,stimuli/own/bathroom/113_bat.jpg,stimuli/own/bathroom/118_bat.jpg,,,,,,,,,0,69,69,273,732.8474592500006,,,,,,,,,,,733.1325230830007,733.2972042500005,733.2972042500005,733.2972042500005,733.2972042500005,733.2972042500005,733.2972042500005,733.2972042500005,733.2972042500005,733.2972042500005,745.8589415829993,-7,7,2,5.0,11.266790499999843,2.0,12.588596999999936,732.8409185,732.8474592500006,733.2972042500005,733.1325090829996,,,,,,,,732.8373396669995,732.8408723329994,None,,,,,,,,,,,202,bathroom,2,2024-03-16_15h37.42.145,image_similarity_rating,2023.2.3,None,2024-03-16 15h38.01.704909 +0100,
,105,116,137,137,stimuli/own/bathroom/105_bat.jpg,stimuli/own/bathroom/116_bat.jpg,,,,,,,,,0,70,70,136,745.8651078750008,,,,,,,,,,,746.1487137919994,746.312275708,746.312275708,746.312275708,746.312275708,746.312275708,746.312275708,746.312275708,746.312275708,746.312275708,752.8847107080001,7,-7,2,6.0,2.9931398750013614,5.0,6.357343625000794,745.8626197920003,745.8651078750008,746.312275708,746.1487028749998,,,,,,,,745.8591608749994,745.8625739170002,None,,,,,,,,,,,202,bathroom,2,2024-03-16_15h37.42.145,image_similarity_rating,2023.2.3,None,2024-03-16 15h38.01.704909 +0100,
,126,127,505,505,stimuli/own/bathroom/126_bat.jpg,stimuli/own/bathroom/127_bat.jpg,,,,,,,,,0,71,71,504,752.897240792001,,,,,,,,,,,753.1819237079999,753.3460157499994,753.3460157499994,753.3460157499994,753.3460157499994,753.3460157499994,753.3460157499994,753.3460157499994,753.3460157499994,753.3460157499994,760.3844789579998,-7,7,2,2.0,4.934223750000456,3.0,6.90828833300111,752.8884885419993,752.897240792001,753.3460157499994,753.181913208,,,,,,,,752.8849316670003,752.8884418750004,None,,,,,,,,,,,202,bathroom,2,2024-03-16_15h37.42.145,image_similarity_rating,2023.2.3,None,2024-03-16 15h38.01.704909 +0100,
,102,111,40,40,stimuli/own/bathroom/102_bat.jpg,stimuli/own/bathroom/111_bat.jpg,,,,,,,,,0,72,72,39,760.3904595000004,,,,,,,,,,,760.6826011249996,760.8487609580006,760.8487609580006,760.8487609580006,760.8487609580006,760.8487609580006,760.8487609580006,760.8487609580006,760.8487609580006,760.8487609580006,779.5170034580005,7,-7,2,1.0,15.518406667000818,2.0,18.4199293340007,760.3883758749998,760.3904595000004,760.8487609580006,760.6825808329995,,,,,,,,760.3847111249997,760.388328125,None,,,,,,,,,,,202,bathroom,2,2024-03-16_15h37.42.145,image_similarity_rating,2023.2.3,None,2024-03-16 15h38.01.704909 +0100,
,134,136,569,569,stimuli/own/bathroom/134_bat.jpg,stimuli/own/bathroom/136_bat.jpg,,,,,,,,,0,73,73,568,779.5224256670008,,,,,,,,,,,779.8151252499993,779.9780726669997,779.9780726669997,779.9780726669997,779.9780726669997,779.9780726669997,779.9780726669997,779.9780726669997,779.9780726669997,779.9780726669997,786.9846482920002,7,-7,2,6.0,2.8712508750013512,5.0,6.793561874999796,779.520665,779.5224256670008,779.9780726669997,779.8151149999994,,,,,,,,779.5172248750005,779.5206192500009,None,,,,,,,,,,,202,bathroom,2,2024-03-16_15h37.42.145,image_similarity_rating,2023.2.3,None,2024-03-16 15h38.01.704909 +0100,
,104,126,117,117,stimuli/own/bathroom/104_bat.jpg,stimuli/own/bathroom/126_bat.jpg,,,,,,,,,0,74,74,116,786.9970863750004,,,,,,,,,,,787.282479083,787.4474110829997,787.4474110829997,787.4474110829997,787.4474110829997,787.4474110829997,787.4474110829997,787.4474110829997,787.4474110829997,787.4474110829997,802.9868289580008,-7,7,2,4.0,13.690031083000576,3.0,15.095044499999858,786.9883505830003,786.9970863750004,787.4474110829997,787.2824654169999,,,,,,,,786.9848706249995,786.9883044170001,None,,,,,,,,,,,202,bathroom,2,2024-03-16_15h37.42.145,image_similarity_rating,2023.2.3,None,2024-03-16 15h38.01.704909 +0100,
,114,138,316,316,stimuli/own/bathroom/114_bat.jpg,stimuli/own/bathroom/138_bat.jpg,,,,,,,,,0,75,75,315,802.9970085000004,,,,,,,,,,,803.2826470420005,803.4495551250002,803.4495551250002,803.4495551250002,803.4495551250002,803.4495551250002,803.4495551250002,803.4495551250002,803.4495551250002,803.4495551250002,816.6160994170004,7,-7,2,1.0,5.255820416999995,5.0,10.069404166999448,802.9904895,802.9970085000004,803.4495551250002,803.2826270000005,,,,,,,,802.9870504999999,802.9904435829994,None,,,,,,,,,,,202,bathroom,2,2024-03-16_15h37.42.145,image_similarity_rating,2023.2.3,None,2024-03-16 15h38.01.704909 +0100,
,112,123,254,254,stimuli/own/bathroom/112_bat.jpg,stimuli/own/bathroom/123_bat.jpg,,,,,,,,,0,76,76,253,816.6217042919998,,,,,,,,,,,816.9150671250009,817.0820936250002,817.0820936250002,817.0820936250002,817.0820936250002,817.0820936250002,817.0820936250002,817.0820936250002,817.0820936250002,817.0820936250002,824.4288565000006,7,-7,2,5.0,6.337831000000733,3.0,7.286289875000875,816.6197652080009,816.6217042919998,817.0820936250002,816.9150464579998,,,,,,,,816.6163214999997,816.6197191249994,None,,,,,,,,,,,202,bathroom,2,2024-03-16_15h37.42.145,image_similarity_rating,2023.2.3,None,2024-03-16 15h38.01.704909 +0100,
,104,137,126,126,stimuli/own/bathroom/104_bat.jpg,stimuli/own/bathroom/137_bat.jpg,,,,,,,,,0,77,77,125,824.4343898330008,,,,,,,,,,,824.720196833001,824.8852949579996,824.8852949579996,824.8852949579996,824.8852949579996,824.8852949579996,824.8852949579996,824.8852949579996,824.8852949579996,824.8852949579996,830.5788725830007,-7,7,2,4.0,3.5407067079995613,6.0,5.63068574999852,824.4326314579994,824.4343898330008,824.8852949579996,824.7201862080001,,,,,,,,824.4290769170002,824.4325852080001,None,,,,,,,,,,,202,bathroom,2,2024-03-16_15h37.42.145,image_similarity_rating,2023.2.3,None,2024-03-16 15h38.01.704909 +0100,
,106,129,178,178,stimuli/own/bathroom/106_bat.jpg,stimuli/own/bathroom/129_bat.jpg,,,,,,,,,0,78,78,177,830.5845009999994,,,,,,,,,,,830.869134333001,831.0388944170008,831.0388944170008,831.0388944170008,831.0388944170008,831.0388944170008,831.0388944170008,831.0388944170008,831.0388944170008,831.0388944170008,837.2163139580007,-7,7,2,5.0,4.468043082999429,4.0,6.190473292001116,830.5825774170007,830.5845009999994,831.0388944170008,830.8691192919996,,,,,,,,830.579100125,830.5825316249993,None,,,,,,,,,,,202,bathroom,2,2024-03-16_15h37.42.145,image_similarity_rating,2023.2.3,None,2024-03-16 15h38.01.704909 +0100,
,105,135,154,154,stimuli/own/bathroom/105_bat.jpg,stimuli/own/bathroom/135_bat.jpg,,,,,,,,,0,79,79,153,837.2218969170008,,,,,,,,,,,837.5149112920008,837.6846335000009,837.6846335000009,837.6846335000009,837.6846335000009,837.6846335000009,837.6846335000009,837.6846335000009,837.6846335000009,837.6846335000009,843.6755341669996,7,-7,2,3.0,3.1841304169993236,3.0,5.918194500000027,837.2199568329997,837.2218969170008,837.6846335000009,837.514886500001,,,,,,,,837.2165312079997,837.2199113330007,None,,,,,,,,,,,202,bathroom,2,2024-03-16_15h37.42.145,image_similarity_rating,2023.2.3,None,2024-03-16 15h38.01.704909 +0100,
,120,124,409,409,stimuli/own/bathroom/120_bat.jpg,stimuli/own/bathroom/124_bat.jpg,,,,,,,,,0,80,80,408,843.6816309170008,,,,,,,,,,,843.964717750001,844.1299572499993,844.1299572499993,844.1299572499993,844.1299572499993,844.1299572499993,844.1299572499993,844.1299572499993,844.1299572499993,844.1299572499993,856.0376568329993,-7,7,2,4.0,3.891904041000089,6.0,11.831749208000474,843.6793429169993,843.6816309170008,844.1299572499993,843.9647031250006,,,,,,,,843.6757573329996,843.679285917,None,,,,,,,,,,,202,bathroom,2,2024-03-16_15h37.42.145,image_similarity_rating,2023.2.3,None,2024-03-16 15h38.01.704909 +0100,
,116,130,332,332,stimuli/own/bathroom/116_bat.jpg,stimuli/own/bathroom/130_bat.jpg,,,,,,,,,0,81,81,331,856.0467984170009,,,,,,,,,,,856.3314374580004,856.4984652919993,856.4984652919993,856.4984652919993,856.4984652919993,856.4984652919993,856.4984652919993,856.4984652919993,856.4984652919993,856.4984652919993,862.1418914999995,-7,7,2,4.0,3.2326552089998586,3.0,5.531235791000654,856.0413317500006,856.0467984170009,856.4984652919993,856.3314226250004,,,,,,,,856.0378837499993,856.0412859999997,None,,,,,,,,,,,202,bathroom,2,2024-03-16_15h37.42.145,image_similarity_rating,2023.2.3,None,2024-03-16 15h38.01.704909 +0100,
,104,131,121,121,stimuli/own/bathroom/104_bat.jpg,stimuli/own/bathroom/131_bat.jpg,,,,,,,,,0,82,82,120,862.1480714999998,,,,,,,,,,,862.4318290419997,862.5965207919999,862.5965207919999,862.5965207919999,862.5965207919999,862.5965207919999,862.5965207919999,862.5965207919999,862.5965207919999,862.5965207919999,867.1210378329997,-7,7,2,1.0,3.463406834000125,1.0,4.438113457999862,862.1455785830003,862.1480714999998,862.5965207919999,862.4318155420005,,,,,,,,862.1421110829997,862.1455324580002,None,,,,,,,,,,,202,bathroom,2,2024-03-16_15h37.42.145,image_similarity_rating,2023.2.3,None,2024-03-16 15h38.01.704909 +0100,
,105,123,144,144,stimuli/own/bathroom/105_bat.jpg,stimuli/own/bathroom/123_bat.jpg,,,,,,,,,0,83,83,143,867.1301366669995,,,,,,,,,,,867.4156068749999,867.5811716250009,867.5811716250009,867.5811716250009,867.5811716250009,867.5811716250009,867.5811716250009,867.5811716250009,867.5811716250009,867.5811716250009,881.3803380829995,7,-7,2,4.0,10.818678999999975,3.0,13.73003937499925,867.1247042079995,867.1301366669995,867.5811716250009,867.4155871250005,,,,,,,,867.1212674170001,867.1246583329994,None,,,,,,,,,,,202,bathroom,2,2024-03-16_15h37.42.145,image_similarity_rating,2023.2.3,None,2024-03-16 15h38.01.704909 +0100,
,114,123,303,303,stimuli/own/bathroom/114_bat.jpg,stimuli/own/bathroom/123_bat.jpg,,,,,,,,,0,84,84,302,881.3863518329999,,,,,,,,,,,881.6814153329997,881.849307167,881.849307167,881.849307167,881.849307167,881.849307167,881.849307167,881.849307167,881.849307167,881.849307167,894.6458196250005,7,-7,2,1.0,11.136822832999314,2.0,12.709412749998592,881.3842905000001,881.3863518329999,881.849307167,881.6813985419994,,,,,,,,881.3805897080001,881.3842425000003,None,,,,,,,,,,,202,bathroom,2,2024-03-16_15h37.42.145,image_similarity_rating,2023.2.3,None,2024-03-16 15h38.01.704909 +0100,
,129,138,537,537,stimuli/own/bathroom/129_bat.jpg,stimuli/own/bathroom/138_bat.jpg,,,,,,,,,0,85,85,536,894.6515642499999,,,,,,,,,,,894.9481495420005,895.1130107080007,895.1130107080007,895.1130107080007,895.1130107080007,895.1130107080007,895.1130107080007,895.1130107080007,895.1130107080007,895.1130107080007,911.3666457079999,7,-7,2,1.0,14.938120417000391,3.0,16.17416158299966,894.6494875829994,894.6515642499999,895.1130107080007,894.9481339169997,,,,,,,,894.646037292001,894.6494417079994,None,,,,,,,,,,,202,bathroom,2,2024-03-16_15h37.42.145,image_similarity_rating,2023.2.3,None,2024-03-16 15h38.01.704909 +0100,
,122,141,459,459,stimuli/own/bathroom/122_bat.jpg,stimuli/own/bathroom/141_bat.jpg,,,,,,,,,0,86,86,458,911.3799212499998,,,,,,,,,,,911.6654405000008,911.829542292,911.829542292,911.829542292,911.829542292,911.829542292,911.829542292,911.829542292,911.829542292,911.829542292,919.0673757080003,-7,7,2,5.0,5.497560165998948,3.0,7.186082541998985,911.3705244579996,911.3799212499998,911.829542292,911.6654264579993,,,,,,,,911.3668814169996,911.3704677500009,None,,,,,,,,,,,202,bathroom,2,2024-03-16_15h37.42.145,image_similarity_rating,2023.2.3,None,2024-03-16 15h38.01.704909 +0100,
,111,123,228,228,stimuli/own/bathroom/111_bat.jpg,stimuli/own/bathroom/123_bat.jpg,,,,,,,,,0,87,87,227,919.0799354579995,,,,,,,,,,,919.3651306249994,919.5306793330001,919.5306793330001,919.5306793330001,919.5306793330001,919.5306793330001,919.5306793330001,919.5306793330001,919.5306793330001,919.5306793330001,928.225083583,-7,7,2,3.0,5.7829344580004545,2.0,8.531814291000046,919.071160208001,919.0799354579995,919.5306793330001,919.3651146249995,,,,,,,,919.0675972499994,919.0711139169998,None,,,,,,,,,,,202,bathroom,2,2024-03-16_15h37.42.145,image_similarity_rating,2023.2.3,None,2024-03-16 15h38.01.704909 +0100,
,122,135,453,453,stimuli/own/bathroom/122_bat.jpg,stimuli/own/bathroom/135_bat.jpg,,,,,,,,,0,88,88,452,928.2313269999995,,,,,,,,,,,928.5146342919998,928.6807624169996,928.6807624169996,928.6807624169996,928.6807624169996,928.6807624169996,928.6807624169996,928.6807624169996,928.6807624169996,928.6807624169996,933.5461259999993,7,-7,2,1.0,2.911612583000533,1.0,4.716721000000689,928.2287790419996,928.2313269999995,928.6807624169996,928.5146145420003,,,,,,,,928.2252993330003,928.2287335000001,None,,,,,,,,,,,202,bathroom,2,2024-03-16_15h37.42.145,image_similarity_rating,2023.2.3,None,2024-03-16 15h38.01.704909 +0100,
,113,117,273,273,stimuli/own/bathroom/113_bat.jpg,stimuli/own/bathroom/117_bat.jpg,,,,,,,,,0,89,89,272,933.5521284999995,,,,,,,,,,,933.835130333,933.9990448330009,933.9990448330009,933.9990448330009,933.9990448330009,933.9990448330009,933.9990448330009,933.9990448330009,933.9990448330009,933.9990448330009,941.0033389580003,7,-7,2,2.0,4.48347029100114,5.0,6.968735292000929,933.550030458,933.5521284999995,933.9990448330009,933.8351199169992,,,,,,,,933.5463434579997,933.5499836670006,None,,,,,,,,,,,202,bathroom,2,2024-03-16_15h37.42.145,image_similarity_rating,2023.2.3,None,2024-03-16 15h38.01.704909 +0100,
,103,139,97,97,stimuli/own/bathroom/103_bat.jpg,stimuli/own/bathroom/139_bat.jpg,,,,,,,,,0,90,90,96,941.0136711249997,,,,,,,,,,,941.2986707920008,941.4642103749993,941.4642103749993,941.4642103749993,941.4642103749993,941.4642103749993,941.4642103749993,941.4642103749993,941.4642103749993,941.4642103749993,957.8624411670007,7,-7,2,4.0,10.082882208000228,6.0,16.247749749998547,941.0069739999999,941.0136711249997,941.4642103749993,941.2986565829997,,,,,,,,941.0035551670007,941.0069285000009,None,,,,,,,,,,,202,bathroom,2,2024-03-16_15h37.42.145,image_similarity_rating,2023.2.3,None,2024-03-16 15h38.01.704909 +0100,
,112,114,246,246,stimuli/own/bathroom/112_bat.jpg,stimuli/own/bathroom/114_bat.jpg,,,,,,,,,0,91,91,245,957.8680454999994,,,,,,,,,,,958.1522001249996,958.3162494999997,958.3162494999997,958.3162494999997,958.3162494999997,958.3162494999997,958.3162494999997,958.3162494999997,958.3162494999997,958.3162494999997,970.465559708,7,-7,2,2.0,5.883318667001731,4.0,12.089904374999605,957.8661058750004,957.8680454999994,958.3162494999997,958.1521897919993,,,,,,,,957.8626597919992,957.8660595420006,None,,,,,,,,,,,202,bathroom,2,2024-03-16_15h37.42.145,image_similarity_rating,2023.2.3,None,2024-03-16 15h38.01.704909 +0100,
,111,118,223,223,stimuli/own/bathroom/111_bat.jpg,stimuli/own/bathroom/118_bat.jpg,,,,,,,,,0,92,92,222,970.4712586669993,,,,,,,,,,,970.7649545000004,970.9292904169997,970.9292904169997,970.9292904169997,970.9292904169997,970.9292904169997,970.9292904169997,970.9292904169997,970.9292904169997,970.9292904169997,980.2459914169995,-7,7,2,4.0,7.605463832998794,3.0,9.19052883400036,970.4693110419994,970.4712586669993,970.9292904169997,970.7649406670007,,,,,,,,970.465777333,970.4692658330005,None,,,,,,,,,,,202,bathroom,2,2024-03-16_15h37.42.145,image_similarity_rating,2023.2.3,None,2024-03-16 15h38.01.704909 +0100,
,125,127,492,492,stimuli/own/bathroom/125_bat.jpg,stimuli/own/bathroom/127_bat.jpg,,,,,,,,,0,93,93,491,980.2517850830009,,,,,,,,,,,980.5354251669996,980.705376625001,980.705376625001,980.705376625001,980.705376625001,980.705376625001,980.705376625001,980.705376625001,980.705376625001,980.705376625001,989.3321208750003,7,-7,2,6.0,5.63821466599984,4.0,7.876352874998702,980.249712750001,980.2517850830009,980.705376625001,980.535409125001,,,,,,,,980.2462111250006,980.249667125001,None,,,,,,,,,,,202,bathroom,2,2024-03-16_15h37.42.145,image_similarity_rating,2023.2.3,None,2024-03-16 15h38.01.704909 +0100,
,112,132,262,262,stimuli/own/bathroom/112_bat.jpg,stimuli/own/bathroom/132_bat.jpg,,,,,,,,,0,94,94,261,989.3376791249993,,,,,,,,,,,989.6310713750008,989.7965014580004,989.7965014580004,989.7965014580004,989.7965014580004,989.7965014580004,989.7965014580004,989.7965014580004,989.7965014580004,989.7965014580004,1005.4677002919998,-7,7,2,1.0,14.033617125000092,4.0,15.481675500001074,989.3357594169993,989.3376791249993,989.7965014580004,989.6310560000002,,,,,,,,989.3323384579999,989.3357133749996,None,,,,,,,,,,,202,bathroom,2,2024-03-16_15h37.42.145,image_similarity_rating,2023.2.3,None,2024-03-16 15h38.01.704909 +0100,
,120,137,420,420,stimuli/own/bathroom/120_bat.jpg,stimuli/own/bathroom/137_bat.jpg,,,,,,,,,0,95,95,419,1005.4796214580001,,,,,,,,,,,1005.7641900830004,1005.9285715000005,1005.9285715000005,1005.9285715000005,1005.9285715000005,1005.9285715000005,1005.9285715000005,1005.9285715000005,1005.9285715000005,1005.9285715000005,1011.5671362079993,7,-7,2,1.0,3.8560772919990995,6.0,5.399313249999977,1005.4715458749997,1005.4796214580001,1005.9285715000005,1005.7641752079999,,,,,,,,1005.4679203329997,1005.4714882499993,None,,,,,,,,,,,202,bathroom,2,2024-03-16_15h37.42.145,image_similarity_rating,2023.2.3,None,2024-03-16 15h38.01.704909 +0100,
,106,118,168,168,stimuli/own/bathroom/106_bat.jpg,stimuli/own/bathroom/118_bat.jpg,,,,,,,,,0,96,96,167,1011.5795558749996,,,,,,,,,,,1011.8643929999998,1012.0344461250006,1012.0344461250006,1012.0344461250006,1012.0344461250006,1012.0344461250006,1012.0344461250006,1012.0344461250006,1012.0344461250006,1012.0344461250006,1019.7005314170001,7,-7,2,1.0,5.9594797089994245,2.0,7.469210792000013,1011.571082583001,1011.5795558749996,1012.0344461250006,1011.8643763330001,,,,,,,,1011.5673731250008,1011.5710345000007,None,,,,,,,,,,,202,bathroom,2,2024-03-16_15h37.42.145,image_similarity_rating,2023.2.3,None,2024-03-16 15h38.01.704909 +0100,
,116,123,326,326,stimuli/own/bathroom/116_bat.jpg,stimuli/own/bathroom/123_bat.jpg,,,,,,,,,0,97,97,325,1019.7132779170006,,,,,,,,,,,1019.9976439170005,1020.1637096670001,1020.1637096670001,1020.1637096670001,1020.1637096670001,1020.1637096670001,1020.1637096670001,1020.1637096670001,1020.1637096670001,1020.1637096670001,1028.9669694170007,7,-7,2,6.0,6.660473457999615,6.0,8.680649624999205,1019.7042085419998,1019.7132779170006,1020.1637096670001,1019.997629458001,,,,,,,,1019.7007522919994,1019.7041630420008,None,,,,,,,,,,,202,bathroom,2,2024-03-16_15h37.42.145,image_similarity_rating,2023.2.3,None,2024-03-16 15h38.01.704909 +0100,
,124,137,486,486,stimuli/own/bathroom/124_bat.jpg,stimuli/own/bathroom/137_bat.jpg,,,,,,,,,0,98,98,485,1028.9795060830002,,,,,,,,,,,1029.2641587920007,1029.4300466250006,1029.4300466250006,1029.4300466250006,1029.4300466250006,1029.4300466250006,1029.4300466250006,1029.4300466250006,1029.4300466250006,1029.4300466250006,1039.8117000000002,7,-7,2,6.0,8.80848716699984,6.0,10.106936625001254,1028.9706687500002,1028.9795060830002,1029.4300466250006,1029.2641445829995,,,,,,,,1028.9671876249995,1028.9706228750001,None,,,,,,,,,,,202,bathroom,2,2024-03-16_15h37.42.145,image_similarity_rating,2023.2.3,None,2024-03-16 15h38.01.704909 +0100,
,102,139,65,604,stimuli/own/bathroom/102_bat.jpg,stimuli/own/bathroom/139_bat.jpg,,,,,,,,,0,99,99,603,1039.8175190420006,,,,,,,,,,,1040.1014419580006,1040.2664499170005,1040.2664499170005,1040.2664499170005,1040.2664499170005,1040.2664499170005,1040.2664499170005,1040.2664499170005,1040.2664499170005,1040.2664499170005,1047.4667087500002,-7,7,2,4.0,5.018421291000777,5.0,7.0670524170000135,1039.815420250001,1039.8175190420006,1040.2664499170005,1040.1014267499995,,,,,,,,1039.8119462079994,1039.8153740830003,None,,,,,,,,,,,202,bathroom,2,2024-03-16_15h37.42.145,image_similarity_rating,2023.2.3,None,2024-03-16 15h38.01.704909 +0100,
,104,116,107,107,stimuli/own/bathroom/104_bat.jpg,stimuli/own/bathroom/116_bat.jpg,,,,,,,,,0,100,100,106,1047.4795010420003,,,,,,,,,,,1047.7640543750003,1047.932472292001,1047.932472292001,1047.932472292001,1047.932472292001,1047.932472292001,1047.932472292001,1047.932472292001,1047.932472292001,1047.932472292001,1062.758075875001,-7,7,2,4.0,13.119748999999501,7.0,14.644601833999332,1047.4705605830004,1047.4795010420003,1047.932472292001,1047.7640368329994,,,,,,,,1047.4669340830005,1047.470508458,None,,,,,,,,,,,202,bathroom,2,2024-03-16_15h37.42.145,image_similarity_rating,2023.2.3,None,2024-03-16 15h38.01.704909 +0100,
,112,136,265,265,stimuli/own/bathroom/112_bat.jpg,stimuli/own/bathroom/136_bat.jpg,,,,,,,,,0,101,101,264,1062.764186792001,,,,,,,,,,,1063.0477816250004,1063.2129289580007,1063.2129289580007,1063.2129289580007,1063.2129289580007,1063.2129289580007,1063.2129289580007,1063.2129289580007,1063.2129289580007,1063.2129289580007,1076.1985756249996,7,-7,2,2.0,4.046621249999589,6.0,12.85467933399923,1062.761771083,1062.764186792001,1063.2129289580007,1063.047769750001,,,,,,,,1062.7582939170006,1062.7617155829994,None,,,,,,,,,,,202,bathroom,2,2024-03-16_15h37.42.145,image_similarity_rating,2023.2.3,None,2024-03-16 15h38.01.704909 +0100,
,129,130,530,530,stimuli/own/bathroom/129_bat.jpg,stimuli/own/bathroom/130_bat.jpg,,,,,,,,,0,102,102,529,1076.2044368330007,,,,,,,,,,,1076.4974229580002,1076.6642299169998,1076.6642299169998,1076.6642299169998,1076.6642299169998,1076.6642299169998,1076.6642299169998,1076.6642299169998,1076.6642299169998,1076.6642299169998,1083.565169042,7,-7,2,7.0,3.8799302500010526,4.0,6.012957832999746,1076.2023513330005,1076.2044368330007,1076.6642299169998,1076.4974084580008,,,,,,,,1076.198802625,1076.202304208,None,,,,,,,,,,,202,bathroom,2,2024-03-16_15h37.42.145,image_similarity_rating,2023.2.3,None,2024-03-16 15h38.01.704909 +0100,
,103,129,88,88,stimuli/own/bathroom/103_bat.jpg,stimuli/own/bathroom/129_bat.jpg,,,,,,,,,0,103,103,87,1083.5708149580005,,,,,,,,,,,1083.864065875001,1084.0328620830005,1084.0328620830005,1084.0328620830005,1084.0328620830005,1084.0328620830005,1084.0328620830005,1084.0328620830005,1084.0328620830005,1084.0328620830005,1092.967220083001,-7,7,2,2.0,7.231478833000438,2.0,8.748920542000633,1083.5688353749993,1083.5708149580005,1084.0328620830005,1083.8640479580008,,,,,,,,1083.565389417001,1083.5687892080005,None,,,,,,,,,,,202,bathroom,2,2024-03-16_15h37.42.145,image_similarity_rating,2023.2.3,None,2024-03-16 15h38.01.704909 +0100,
,132,135,561,561,stimuli/own/bathroom/132_bat.jpg,stimuli/own/bathroom/135_bat.jpg,,,,,,,,,0,104,104,560,1092.9793168329998,,,,,,,,,,,1093.2639299170005,1093.429768125001,1093.429768125001,1093.429768125001,1093.429768125001,1093.429768125001,1093.429768125001,1093.429768125001,1093.429768125001,1093.429768125001,1103.8374220000005,7,-7,2,6.0,8.119695041999876,4.0,10.270931708000717,1092.9709940829998,1092.9793168329998,1093.429768125001,1093.2639140829997,,,,,,,,1092.9674401249995,1092.9709483330007,None,,,,,,,,,,,202,bathroom,2,2024-03-16_15h37.42.145,image_similarity_rating,2023.2.3,None,2024-03-16 15h38.01.704909 +0100,
,101,123,18,18,stimuli/own/bathroom/101_bat.jpg,stimuli/own/bathroom/123_bat.jpg,,,,,,,,,0,105,105,17,1103.8456883750005,,,,,,,,,,,1104.1312164169995,1104.2985496250003,1104.2985496250003,1104.2985496250003,1104.2985496250003,1104.2985496250003,1104.2985496250003,1104.2985496250003,1104.2985496250003,1104.2985496250003,1115.299004417,7,-7,2,2.0,9.348712000000887,5.0,10.959442624998701,1103.8410782499996,1103.8456883750005,1104.2985496250003,1104.1312009579997,,,,,,,,1103.8376425000006,1103.8410316669997,None,,,,,,,,,,,202,bathroom,2,2024-03-16_15h37.42.145,image_similarity_rating,2023.2.3,None,2024-03-16 15h38.01.704909 +0100,
,104,111,103,103,stimuli/own/bathroom/104_bat.jpg,stimuli/own/bathroom/111_bat.jpg,,,,,,,,,0,106,106,102,1115.3125788750003,,,,,,,,,,,1115.5972283749998,1115.7683860420002,1115.7683860420002,1115.7683860420002,1115.7683860420002,1115.7683860420002,1115.7683860420002,1115.7683860420002,1115.7683860420002,1115.7683860420002,1122.7368645829993,7,-7,2,4.0,4.988774124998599,2.0,6.7825999169999704,1115.302929167001,1115.3125788750003,1115.7683860420002,1115.5972102079995,,,,,,,,1115.2992319999994,1115.302880833,None,,,,,,,,,,,202,bathroom,2,2024-03-16_15h37.42.145,image_similarity_rating,2023.2.3,None,2024-03-16 15h38.01.704909 +0100,
,116,131,333,333,stimuli/own/bathroom/116_bat.jpg,stimuli/own/bathroom/131_bat.jpg,,,,,,,,,0,107,107,332,1122.745979917001,,,,,,,,,,,1123.031192583001,1123.198304292,1123.198304292,1123.198304292,1123.198304292,1123.198304292,1123.198304292,1123.198304292,1123.198304292,1123.198304292,1127.7078917079998,7,-7,2,1.0,3.4845884579990525,1.0,4.264388125000551,1122.7405183329993,1122.745979917001,1123.198304292,1123.0311762500005,,,,,,,,1122.7370875830002,1122.740472292,None,,,,,,,,,,,202,bathroom,2,2024-03-16_15h37.42.145,image_similarity_rating,2023.2.3,None,2024-03-16 15h38.01.704909 +0100,
,105,117,138,598,stimuli/own/bathroom/105_bat.jpg,stimuli/own/bathroom/117_bat.jpg,,,,,,,,,0,108,108,597,1127.713820375,,,,,,,,,,,1127.997183042,1128.1634827079997,1128.1634827079997,1128.1634827079997,1128.1634827079997,1128.1634827079997,1128.1634827079997,1128.1634827079997,1128.1634827079997,1128.1634827079997,1137.6576417079996,-7,7,2,1.0,8.246806791999916,5.0,9.33017133300018,1127.7115403749995,1127.713820375,1128.1634827079997,1127.997166792,,,,,,,,1127.7081106250007,1127.7114851250008,None,,,,,,,,,,,202,bathroom,2,2024-03-16_15h37.42.145,image_similarity_rating,2023.2.3,None,2024-03-16 15h38.01.704909 +0100,
,104,122,113,113,stimuli/own/bathroom/104_bat.jpg,stimuli/own/bathroom/122_bat.jpg,,,,,,,,,0,109,109,112,1137.6636536250007,,,,,,,,,,,1137.9473515829995,1138.1117185000003,1138.1117185000003,1138.1117185000003,1138.1117185000003,1138.1117185000003,1138.1117185000003,1138.1117185000003,1138.1117185000003,1138.1117185000003,1148.6245057920005,7,-7,2,3.0,7.680259541999476,2.0,10.18216216700057,1137.661450042,1137.6636536250007,1138.1117185000003,1137.94733825,,,,,,,,1137.6578616250008,1137.661404083001,None,,,,,,,,,,,202,bathroom,2,2024-03-16_15h37.42.145,image_similarity_rating,2023.2.3,None,2024-03-16 15h38.01.704909 +0100,
,130,138,547,547,stimuli/own/bathroom/130_bat.jpg,stimuli/own/bathroom/138_bat.jpg,,,,,,,,,0,110,110,546,1148.6304154169993,,,,,,,,,,,1148.9143070829996,1149.0797230419994,1149.0797230419994,1149.0797230419994,1149.0797230419994,1149.0797230419994,1149.0797230419994,1149.0797230419994,1149.0797230419994,1149.0797230419994,1157.932697917,-7,7,2,6.0,6.251710999998977,6.0,8.659772082999552,1148.6282102919995,1148.6304154169993,1149.0797230419994,1148.9142928750007,,,,,,,,1148.6247242080008,1148.6281440830007,None,,,,,,,,,,,202,bathroom,2,2024-03-16_15h37.42.145,image_similarity_rating,2023.2.3,None,2024-03-16 15h38.01.704909 +0100,
,103,135,93,93,stimuli/own/bathroom/103_bat.jpg,stimuli/own/bathroom/135_bat.jpg,,,,,,,,,0,111,111,92,1157.9385567919999,,,,,,,,,,,1158.2303390420002,1158.3954838749996,1158.3954838749996,1158.3954838749996,1158.3954838749996,1158.3954838749996,1158.3954838749996,1158.3954838749996,1158.3954838749996,1158.3954838749996,1164.2783776249998,7,-7,2,5.0,3.9193342500002473,6.0,5.649841500000548,1157.9364604580005,1157.9385567919999,1158.3954838749996,1158.230313958,,,,,,,,1157.9329268750007,1157.9364139999998,None,,,,,,,,,,,202,bathroom,2,2024-03-16_15h37.42.145,image_similarity_rating,2023.2.3,None,2024-03-16 15h38.01.704909 +0100,
,127,138,526,526,stimuli/own/bathroom/127_bat.jpg,stimuli/own/bathroom/138_bat.jpg,,,,,,,,,0,112,112,525,1164.283814167,,,,,,,,,,,1164.5677235830008,1164.7349204580005,1164.7349204580005,1164.7349204580005,1164.7349204580005,1164.7349204580005,1164.7349204580005,1164.7349204580005,1164.7349204580005,1164.7349204580005,1178.8369736669993,-7,7,2,6.0,11.883889667000403,3.0,13.95897241700004,1164.2820637080004,1164.283814167,1164.7349204580005,1164.5677071669998,,,,,,,,1164.2785989580007,1164.2820178750007,None,,,,,,,,,,,202,bathroom,2,2024-03-16_15h37.42.145,image_similarity_rating,2023.2.3,None,2024-03-16 15h38.01.704909 +0100,
,120,138,421,421,stimuli/own/bathroom/120_bat.jpg,stimuli/own/bathroom/138_bat.jpg,,,,,,,,,0,113,113,420,1178.845913958001,,,,,,,,,,,1179.1309062920009,1179.2965427920008,1179.2965427920008,1179.2965427920008,1179.2965427920008,1179.2965427920008,1179.2965427920008,1179.2965427920008,1179.2965427920008,1179.2965427920008,1188.7076373750006,7,-7,2,5.0,6.079638291001174,5.0,9.191554667000673,1178.8407685000002,1178.845913958001,1179.2965427920008,1179.1308921250002,,,,,,,,1178.8371927080007,1178.840722125,None,,,,,,,,,,,202,bathroom,2,2024-03-16_15h37.42.145,image_similarity_rating,2023.2.3,None,2024-03-16 15h38.01.704909 +0100,
,127,137,525,525,stimuli/own/bathroom/127_bat.jpg,stimuli/own/bathroom/137_bat.jpg,,,,,,,,,0,114,114,524,1188.7135413329997,,,,,,,,,,,1188.9970852919996,1189.1634652079993,1189.1634652079993,1189.1634652079993,1189.1634652079993,1189.1634652079993,1189.1634652079993,1189.1634652079993,1189.1634652079993,1189.1634652079993,1196.5412772920008,-7,7,2,2.0,3.356618207999418,2.0,7.152739875000407,1188.711446833,1188.7135413329997,1189.1634652079993,1188.9970696250002,,,,,,,,1188.7078548749996,1188.7113972919997,None,,,,,,,,,,,202,bathroom,2,2024-03-16_15h37.42.145,image_similarity_rating,2023.2.3,None,2024-03-16 15h38.01.704909 +0100,
,109,118,196,196,stimuli/own/bathroom/109_bat.jpg,stimuli/own/bathroom/118_bat.jpg,,,,,,,,,0,115,115,195,1196.5470401250004,,,,,,,,,,,1196.8301155419995,1196.995090458,1196.995090458,1196.995090458,1196.995090458,1196.995090458,1196.995090458,1196.995090458,1196.995090458,1196.995090458,1205.5001951670001,-7,7,2,2.0,6.877733375000389,6.0,8.268857290999222,1196.5451019169996,1196.5470401250004,1196.995090458,1196.830090458001,,,,,,,,1196.5414975420008,1196.545055875,None,,,,,,,,,,,202,bathroom,2,2024-03-16_15h37.42.145,image_similarity_rating,2023.2.3,None,2024-03-16 15h38.01.704909 +0100,
,103,121,81,81,stimuli/own/bathroom/103_bat.jpg,stimuli/own/bathroom/121_bat.jpg,,,,,,,,,0,116,116,80,1205.5123628750007,,,,,,,,,,,1205.7970061670003,1205.9677048329995,1205.9677048329995,1205.9677048329995,1205.9677048329995,1205.9677048329995,1205.9677048329995,1205.9677048329995,1205.9677048329995,1205.9677048329995,1227.0775647080009,-7,7,2,6.0,17.702088541000194,3.0,20.879341957999713,1205.503871625,1205.5123628750007,1205.9677048329995,1205.7969879579996,,,,,,,,1205.500415208,1205.503825625001,None,,,,,,,,,,,202,bathroom,2,2024-03-16_15h37.42.145,image_similarity_rating,2023.2.3,None,2024-03-16 15h38.01.704909 +0100,
,103,104,68,68,stimuli/own/bathroom/103_bat.jpg,stimuli/own/bathroom/104_bat.jpg,,,,,,,,,0,117,117,67,1227.083017375,,,,,,,,,,,1227.3678613329994,1227.5397908329996,1227.5397908329996,1227.5397908329996,1227.5397908329996,1227.5397908329996,1227.5397908329996,1227.5397908329996,1227.5397908329996,1227.5397908329996,1248.418630667,7,-7,2,4.0,15.361958374998721,3.0,20.380456791001052,1227.081266958001,1227.083017375,1227.5397908329996,1227.3678414999995,,,,,,,,1227.077787958,1227.0812209169999,None,,,,,,,,,,,202,bathroom,2,2024-03-16_15h37.42.145,image_similarity_rating,2023.2.3,None,2024-03-16 15h38.01.704909 +0100,
,119,120,386,386,stimuli/own/bathroom/119_bat.jpg,stimuli/own/bathroom/120_bat.jpg,,,,,,,,,0,118,118,385,1248.4288066669997,,,,,,,,,,,1248.713387625001,1248.8839580000003,1248.8839580000003,1248.8839580000003,1248.8839580000003,1248.8839580000003,1248.8839580000003,1248.8839580000003,1248.8839580000003,1248.8839580000003,1256.340377042001,-7,7,2,5.0,4.863922915999865,4.0,7.220569666000301,1248.422407958,1248.4288066669997,1248.8839580000003,1248.7133659579995,,,,,,,,1248.4188585419997,1248.4223604170002,None,,,,,,,,,,,202,bathroom,2,2024-03-16_15h37.42.145,image_similarity_rating,2023.2.3,None,2024-03-16 15h38.01.704909 +0100,
,137,138,586,586,stimuli/own/bathroom/137_bat.jpg,stimuli/own/bathroom/138_bat.jpg,,,,,,,,,0,119,119,585,1256.3623338329999,,,,,,,,,,,1256.646152292,1256.818610667,1256.818610667,1256.818610667,1256.818610667,1256.818610667,1256.818610667,1256.818610667,1256.818610667,1256.818610667,1269.3659435419995,7,-7,2,5.0,10.335492208998403,4.0,12.453248707999592,1256.3440271670006,1256.3623338329999,,1256.6461155420002,,,,,,,,1256.3405984580004,1256.3439809169995,None,,,,,,,,,,,202,bathroom,2,2024-03-16_15h37.42.145,image_similarity_rating,2023.2.3,None,2024-03-16 15h38.01.704909 +0100,
,116,126,329,329,stimuli/own/bathroom/116_bat.jpg,stimuli/own/bathroom/126_bat.jpg,,,,,,,,,0,120,120,328,1269.3788012500008,,,,,,,,,,,1269.6634200000008,1269.8311579580004,1269.8311579580004,1269.8311579580004,1269.8311579580004,1269.8311579580004,1269.8311579580004,1269.8311579580004,1269.8311579580004,1269.8311579580004,1281.9990511670003,-7,7,2,1.0,10.871154542001022,1.0,12.004379957999845,1269.3697325419998,1269.3788012500008,1269.8311579580004,1269.663396375001,,,,,,,,1269.366164125,1269.3696859579995,None,,,,,,,,,,,202,bathroom,2,2024-03-16_15h37.42.145,image_similarity_rating,2023.2.3,None,2024-03-16 15h38.01.704909 +0100,
,109,120,198,198,stimuli/own/bathroom/109_bat.jpg,stimuli/own/bathroom/120_bat.jpg,,,,,,,,,0,121,121,197,1282.011954083,,,,,,,,,,,1282.2966057499998,1282.4609292500008,1282.4609292500008,1282.4609292500008,1282.4609292500008,1282.4609292500008,1282.4609292500008,1282.4609292500008,1282.4609292500008,1282.4609292500008,1288.0237261670009,7,-7,2,6.0,4.003868625000905,2.0,5.425386625000101,1282.00290175,1282.011954083,1282.4609292500008,1282.2965953330004,,,,,,,,1281.9992806249993,1282.0028528750008,None,,,,,,,,,,,202,bathroom,2,2024-03-16_15h37.42.145,image_similarity_rating,2023.2.3,None,2024-03-16 15h38.01.704909 +0100,
,118,141,385,385,stimuli/own/bathroom/118_bat.jpg,stimuli/own/bathroom/141_bat.jpg,,,,,,,,,0,122,122,384,1288.0299261250002,,,,,,,,,,,1288.3137054580002,1288.4802893329997,1288.4802893329997,1288.4802893329997,1288.4802893329997,1288.4802893329997,1288.4802893329997,1288.4802893329997,1288.4802893329997,1288.4802893329997,1293.6863521249998,-7,7,2,5.0,3.058255707999706,2.0,5.082662167000308,1288.0274115829998,1288.0299261250002,1288.4802893329997,1288.3136874169995,,,,,,,,1288.0239490000004,1288.0273654579996,None,,,,,,,,,,,202,bathroom,2,2024-03-16_15h37.42.145,image_similarity_rating,2023.2.3,None,2024-03-16 15h38.01.704909 +0100,
,117,127,352,352,stimuli/own/bathroom/117_bat.jpg,stimuli/own/bathroom/127_bat.jpg,,,,,,,,,0,123,123,351,1293.6952019580003,,,,,,,,,,,1293.9799942080008,1294.1451328750009,1294.1451328750009,1294.1451328750009,1294.1451328750009,1294.1451328750009,1294.1451328750009,1294.1451328750009,1294.1451328750009,1294.1451328750009,1303.690048208,-7,7,2,7.0,6.933497874999375,3.0,8.82909012500022,1293.6900248750007,1293.6952019580003,1294.1451328750009,1293.9799790830002,,,,,,,,1293.6865714169999,1293.689978667,None,,,,,,,,,,,202,bathroom,2,2024-03-16_15h37.42.145,image_similarity_rating,2023.2.3,None,2024-03-16 15h38.01.704909 +0100,
,112,129,259,259,stimuli/own/bathroom/112_bat.jpg,stimuli/own/bathroom/129_bat.jpg,,,,,,,,,0,124,124,258,1303.712147458,,,,,,,,,,,1303.9961125419995,1304.161865,1304.161865,1304.161865,1304.161865,1304.161865,1304.161865,1304.161865,1304.161865,1304.161865,1310.3234065420002,-7,7,2,7.0,3.244911415999013,5.0,5.348319000000629,1303.6937105830002,1303.712147458,,1303.9960790000005,,,,,,,,1303.690270000001,1303.6936650000007,None,,,,,,,,,,,202,bathroom,2,2024-03-16_15h37.42.145,image_similarity_rating,2023.2.3,None,2024-03-16 15h38.01.704909 +0100,
,112,137,266,266,stimuli/own/bathroom/112_bat.jpg,stimuli/own/bathroom/137_bat.jpg,,,,,,,,,0,125,125,265,1310.3454738750006,,,,,,,,,,,1310.6293397080008,1310.7942820829994,1310.7942820829994,1310.7942820829994,1310.7942820829994,1310.7942820829994,1310.7942820829994,1310.7942820829994,1310.7942820829994,1310.7942820829994,1317.0659592499997,-7,7,2,3.0,3.4815340419991117,4.0,5.964895917000831,1310.3271549580004,1310.3454738750006,,1310.6293141250007,,,,,,,,1310.3236302080004,1310.3271088750007,None,,,,,,,,,,,202,bathroom,2,2024-03-16_15h37.42.145,image_similarity_rating,2023.2.3,None,2024-03-16 15h38.01.704909 +0100,
,101,125,20,20,stimuli/own/bathroom/101_bat.jpg,stimuli/own/bathroom/125_bat.jpg,,,,,,,,,0,126,126,19,1317.0784921670001,,,,,,,,,,,1324.0299234169997,1324.2034118749998,1324.2034118749998,1324.2034118749998,1324.2034118749998,1324.2034118749998,1324.2034118749998,1324.2034118749998,1324.2034118749998,1324.2034118749998,1340.5117140420007,-7,7,3,2.0,14.846724250000989,5.0,16.14121804199931,1323.7370014999997,1323.745950042001,1324.2034118749998,1324.0299063750008,,,,,,,,1317.0661943750001,1323.7363472079996,space,1317.0784921670001,6.657610749998639,None,,,,,,,,202,bathroom,2,2024-03-16_15h37.42.145,image_similarity_rating,2023.2.3,None,2024-03-16 15h38.01.704909 +0100,
,117,129,353,353,stimuli/own/bathroom/117_bat.jpg,stimuli/own/bathroom/129_bat.jpg,,,,,,,,,0,127,127,352,1340.518022917,,,,,,,,,,,1340.8130931249998,1340.9845786669994,1340.9845786669994,1340.9845786669994,1340.9845786669994,1340.9845786669994,1340.9845786669994,1340.9845786669994,1340.9845786669994,1340.9845786669994,1355.3076628750005,7,-7,3,5.0,6.29996279199986,5.0,14.139639082999565,1340.5160849580006,1340.518022917,1340.9845786669994,1340.8130710000005,,,,,,,,1340.5119761250007,1340.5160369999994,None,,,,,,,,,,,202,bathroom,2,2024-03-16_15h37.42.145,image_similarity_rating,2023.2.3,None,2024-03-16 15h38.01.704909 +0100,
,135,136,575,575,stimuli/own/bathroom/135_bat.jpg,stimuli/own/bathroom/136_bat.jpg,,,,,,,,,0,128,128,574,1355.3131720000001,,,,,,,,,,,1355.5964183329997,1355.7619412919994,1355.7619412919994,1355.7619412919994,1355.7619412919994,1355.7619412919994,1355.7619412919994,1355.7619412919994,1355.7619412919994,1355.7619412919994,1361.4348910829995,7,-7,3,5.0,3.5310709169989423,4.0,5.650051665999854,1355.311383958,1355.3131720000001,1355.7619412919994,1355.5964026670008,,,,,,,,1355.3078975829994,1355.311335417,None,,,,,,,,,,,202,bathroom,2,2024-03-16_15h37.42.145,image_similarity_rating,2023.2.3,None,2024-03-16 15h38.01.704909 +0100,
,114,141,319,319,stimuli/own/bathroom/114_bat.jpg,stimuli/own/bathroom/141_bat.jpg,,,,,,,,,0,129,129,318,1361.4450318750005,,,,,,,,,,,1361.7296849579998,1361.8975680420008,1361.8975680420008,1361.8975680420008,1361.8975680420008,1361.8975680420008,1361.8975680420008,1361.8975680420008,1361.8975680420008,1361.8975680420008,1367.3324605830003,-7,7,3,6.0,2.7430204590000358,7.0,5.2806902499996795,1361.4385484169998,1361.4450318750005,1361.8975680420008,1361.7296690830008,,,,,,,,1361.4351109170002,1361.438502500001,None,,,,,,,,,,,202,bathroom,2,2024-03-16_15h37.42.145,image_similarity_rating,2023.2.3,None,2024-03-16 15h38.01.704909 +0100,
,116,138,339,339,stimuli/own/bathroom/116_bat.jpg,stimuli/own/bathroom/138_bat.jpg,,,,,,,,,0,130,130,338,1367.3449392500006,,,,,,,,,,,1367.6296941250002,1367.7944023750006,1367.7944023750006,1367.7944023750006,1367.7944023750006,1367.7944023750006,1367.7944023750006,1367.7944023750006,1367.7944023750006,1367.7944023750006,1372.4280873330008,-7,7,3,6.0,3.978182792001462,7.0,4.462392458000977,1367.3363023750007,1367.3449392500006,1367.7944023750006,1367.629680125001,,,,,,,,1367.3326903329998,1367.3362536669993,None,,,,,,,,,,,202,bathroom,2,2024-03-16_15h37.42.145,image_similarity_rating,2023.2.3,None,2024-03-16 15h38.01.704909 +0100,
,124,131,481,481,stimuli/own/bathroom/124_bat.jpg,stimuli/own/bathroom/131_bat.jpg,,,,,,,,,0,131,131,480,1372.4338789579997,,,,,,,,,,,1372.7172197500004,1372.8879730829995,1372.8879730829995,1372.8879730829995,1372.8879730829995,1372.8879730829995,1372.8879730829995,1372.8879730829995,1372.8879730829995,1372.8879730829995,1381.6814967080009,7,-7,3,1.0,4.315078624998932,5.0,8.559438999998747,1372.431806042001,1372.4338789579997,1372.8879730829995,1372.7172040000005,,,,,,,,1372.4283168330003,1372.4317597919999,None,,,,,,,,,,,202,bathroom,2,2024-03-16_15h37.42.145,image_similarity_rating,2023.2.3,None,2024-03-16 15h38.01.704909 +0100,
,102,130,57,57,stimuli/own/bathroom/102_bat.jpg,stimuli/own/bathroom/130_bat.jpg,,,,,,,,,0,132,132,56,1381.6870972920005,,,,,,,,,,,1381.979666542,1382.1504673750005,1382.1504673750005,1382.1504673750005,1382.1504673750005,1382.1504673750005,1382.1504673750005,1382.1504673750005,1382.1504673750005,1382.1504673750005,1392.6781167919999,7,-7,3,6.0,8.964198792000388,6.0,10.392059290999896,1381.6851430829993,1381.6870972920005,1382.1504673750005,1381.979649125,,,,,,,,1381.6817195420008,1381.6850974999998,None,,,,,,,,,,,202,bathroom,2,2024-03-16_15h37.42.145,image_similarity_rating,2023.2.3,None,2024-03-16 15h38.01.704909 +0100,
,105,138,157,157,stimuli/own/bathroom/105_bat.jpg,stimuli/own/bathroom/138_bat.jpg,,,,,,,,,0,133,133,156,1392.6838577500002,,,,,,,,,,,1392.9795740419995,1393.1454460000004,1393.1454460000004,1393.1454460000004,1393.1454460000004,1393.1454460000004,1393.1454460000004,1393.1454460000004,1393.1454460000004,1393.1454460000004,1402.7940895419997,7,-7,3,5.0,2.9886725830001524,5.0,9.148575166998853,1392.6819385,1392.6838577500002,1393.1454460000004,1392.9795603750008,,,,,,,,1392.6783355419993,1392.6818917500004,None,,,,,,,,,,,202,bathroom,2,2024-03-16_15h37.42.145,image_similarity_rating,2023.2.3,None,2024-03-16 15h38.01.704909 +0100,
,103,122,82,82,stimuli/own/bathroom/103_bat.jpg,stimuli/own/bathroom/122_bat.jpg,,,,,,,,,0,134,134,81,1402.7995846249996,,,,,,,,,,,1403.0837578329993,1403.2556529169997,1403.2556529169997,1403.2556529169997,1403.2556529169997,1403.2556529169997,1403.2556529169997,1403.2556529169997,1403.2556529169997,1403.2556529169997,1408.5313018750003,7,-7,3,4.0,2.526221500000247,3.0,5.184451708999404,1402.7977704580007,1402.7995846249996,1403.2556529169997,1403.0837425829995,,,,,,,,1402.794308208,1402.7977243330006,None,,,,,,,,,,,202,bathroom,2,2024-03-16_15h37.42.145,image_similarity_rating,2023.2.3,None,2024-03-16 15h38.01.704909 +0100,
,101,116,11,11,stimuli/own/bathroom/101_bat.jpg,stimuli/own/bathroom/116_bat.jpg,,,,,,,,,0,135,135,10,1408.5448517080004,,,,,,,,,,,1408.8295942919995,1408.9938534579996,1408.9938534579996,1408.9938534579996,1408.9938534579996,1408.9938534579996,1408.9938534579996,1408.9938534579996,1408.9938534579996,1408.9938534579996,1429.1773592499994,7,-7,3,2.0,17.56976154199947,5.0,20.083806249998815,1408.5353209999994,1408.5448517080004,1408.9938534579996,1408.8295810420004,,,,,,,,1408.5315353749993,1408.5352733750005,None,,,,,,,,,,,202,bathroom,2,2024-03-16_15h37.42.145,image_similarity_rating,2023.2.3,None,2024-03-16 15h38.01.704909 +0100,
,119,127,393,393,stimuli/own/bathroom/119_bat.jpg,stimuli/own/bathroom/127_bat.jpg,,,,,,,,,0,136,136,392,1429.1830890830006,,,,,,,,,,,1429.4667267919995,1429.6330589579993,1429.6330589579993,1429.6330589579993,1429.6330589579993,1429.6330589579993,1429.6330589579993,1429.6330589579993,1429.6330589579993,1429.6330589579993,1448.3309065419999,7,-7,3,6.0,16.079553999999916,4.0,18.407020291999288,1429.1810215000005,1429.1830890830006,1429.6330589579993,1429.4667135830005,,,,,,,,1429.1775755830004,1429.1809761250006,None,,,,,,,,,,,202,bathroom,2,2024-03-16_15h37.42.145,image_similarity_rating,2023.2.3,None,2024-03-16 15h38.01.704909 +0100,
,118,136,380,380,stimuli/own/bathroom/118_bat.jpg,stimuli/own/bathroom/136_bat.jpg,,,,,,,,,0,137,137,379,1448.3364175829993,,,,,,,,,,,1448.6293689579998,1448.7986292500009,1448.7986292500009,1448.7986292500009,1448.7986292500009,1448.7986292500009,1448.7986292500009,1448.7986292500009,1448.7986292500009,1448.7986292500009,1455.1227323330004,7,-7,3,6.0,4.869962332999421,3.0,6.150845166999716,1448.3346605000006,1448.3364175829993,1448.7986292500009,1448.6293513750006,,,,,,,,1448.3311239169998,1448.3346147920001,None,,,,,,,,,,,202,bathroom,2,2024-03-16_15h37.42.145,image_similarity_rating,2023.2.3,None,2024-03-16 15h38.01.704909 +0100,
,139,141,594,594,stimuli/own/bathroom/139_bat.jpg,stimuli/own/bathroom/141_bat.jpg,,,,,,,,,0,138,138,593,1455.144687125001,,,,,,,,,,,1455.4288229169997,1455.593778292001,1455.593778292001,1455.593778292001,1455.593778292001,1455.593778292001,1455.593778292001,1455.593778292001,1455.593778292001,1455.593778292001,1483.9479379580007,-7,7,3,6.0,23.309090291000757,6.0,28.238747708999654,1455.1265009580002,1455.144687125001,,1455.4288057920003,,,,,,,,1455.1229508329998,1455.126454958001,None,,,,,,,,,,,202,bathroom,2,2024-03-16_15h37.42.145,image_similarity_rating,2023.2.3,None,2024-03-16 15h38.01.704909 +0100,
,119,122,388,388,stimuli/own/bathroom/119_bat.jpg,stimuli/own/bathroom/122_bat.jpg,,,,,,,,,0,139,139,387,1483.9538594999995,,,,,,,,,,,1484.2458036669996,1484.4085867920003,1484.4085867920003,1484.4085867920003,1484.4085867920003,1484.4085867920003,1484.4085867920003,1484.4085867920003,1484.4085867920003,1484.4085867920003,1517.5768221670005,-7,7,3,6.0,29.24306929100021,2.0,33.14247141600026,1483.951756208,1483.9538594999995,1484.4085867920003,1484.2457929169996,,,,,,,,1483.9481812499998,1483.9517083329993,None,,,,,,,,,,,202,bathroom,2,2024-03-16_15h37.42.145,image_similarity_rating,2023.2.3,None,2024-03-16 15h38.01.704909 +0100,
,105,139,158,158,stimuli/own/bathroom/105_bat.jpg,stimuli/own/bathroom/139_bat.jpg,,,,,,,,,0,140,140,157,1517.582484333001,,,,,,,,,,,1517.8665811249994,1518.0335852499993,1518.0335852499993,1518.0335852499993,1518.0335852499993,1518.0335852499993,1518.0335852499993,1518.0335852499993,1518.0335852499993,1518.0335852499993,1521.9937007499993,-7,7,3,6.0,2.187529999999242,4.0,3.885828208000021,1517.580533458,1517.582484333001,1518.0335852499993,1517.8665687499997,,,,,,,,1517.5770550830002,1517.5804866670005,None,,,,,,,,,,,202,bathroom,2,2024-03-16_15h37.42.145,image_similarity_rating,2023.2.3,None,2024-03-16 15h38.01.704909 +0100,
,119,131,396,396,stimuli/own/bathroom/119_bat.jpg,stimuli/own/bathroom/131_bat.jpg,,,,,,,,,0,141,141,395,1521.9995066249994,,,,,,,,,,,1522.2844007080002,1522.4488337919993,1522.4488337919993,1522.4488337919993,1522.4488337919993,1522.4488337919993,1522.4488337919993,1522.4488337919993,1522.4488337919993,1522.4488337919993,1526.3561248749993,-7,7,3,1.0,2.1320235829989542,3.0,3.8562076660000457,1521.9973991669995,1521.9995066249994,1522.4488337919993,1522.2843873750007,,,,,,,,1521.9939257080005,1521.9973531249998,None,,,,,,,,,,,202,bathroom,2,2024-03-16_15h37.42.145,image_similarity_rating,2023.2.3,None,2024-03-16 15h38.01.704909 +0100,
,136,139,583,583,stimuli/own/bathroom/136_bat.jpg,stimuli/own/bathroom/139_bat.jpg,,,,,,,,,0,142,142,582,1526.3625245830008,,,,,,,,,,,1526.645765792,1526.8093825830001,1526.8093825830001,1526.8093825830001,1526.8093825830001,1526.8093825830001,1526.8093825830001,1526.8093825830001,1526.8093825830001,1526.8093825830001,1531.0307864999995,7,-7,3,2.0,2.365844541000115,4.0,4.061539124999399,1526.359803708001,1526.3625245830008,1526.8093825830001,1526.6457549999996,,,,,,,,1526.3563418329995,1526.359757792001,None,,,,,,,,,,,202,bathroom,2,2024-03-16_15h37.42.145,image_similarity_rating,2023.2.3,None,2024-03-16 15h38.01.704909 +0100,
,114,136,314,314,stimuli/own/bathroom/114_bat.jpg,stimuli/own/bathroom/136_bat.jpg,,,,,,,,,0,143,143,313,1531.0365167920008,,,,,,,,,,,1531.329886208001,1531.494896667,1531.494896667,1531.494896667,1531.494896667,1531.494896667,1531.494896667,1531.494896667,1531.494896667,1531.494896667,1535.572049208,7,-7,3,6.0,2.3001915419990837,4.0,3.7829485000002023,1531.034564083,1531.0365167920008,1531.494896667,1531.3298670000004,,,,,,,,1531.031009208,1531.0345175000002,None,,,,,,,,,,,202,bathroom,2,2024-03-16_15h37.42.145,image_similarity_rating,2023.2.3,None,2024-03-16 15h38.01.704909 +0100,
,109,138,214,214,stimuli/own/bathroom/109_bat.jpg,stimuli/own/bathroom/138_bat.jpg,,,,,,,,,0,144,144,213,1535.577596792,,,,,,,,,,,1535.862460792001,1536.0308491249998,1536.0308491249998,1536.0308491249998,1536.0308491249998,1536.0308491249998,1536.0308491249998,1536.0308491249998,1536.0308491249998,1536.0308491249998,1542.9513062919996,7,-7,3,6.0,4.343234374999156,5.0,6.118494708000071,1535.575815833001,1535.577596792,1536.0308491249998,1535.8624435830006,,,,,,,,1535.572268375001,1535.5757703750005,None,,,,,,,,,,,202,bathroom,2,2024-03-16_15h37.42.145,image_similarity_rating,2023.2.3,None,2024-03-16 15h38.01.704909 +0100,
,103,134,92,92,stimuli/own/bathroom/103_bat.jpg,stimuli/own/bathroom/134_bat.jpg,,,,,,,,,0,145,145,91,1542.9611147920004,,,,,,,,,,,1543.2461016670004,1543.408994083,1543.408994083,1543.408994083,1543.408994083,1543.408994083,1543.408994083,1543.408994083,1543.408994083,1543.408994083,1547.7968489579998,-7,7,3,6.0,2.187777624998489,3.0,3.170602834001329,1542.9549504999995,1542.9611147920004,1543.408994083,1543.246091500001,,,,,,,,1542.9515248330008,1542.954905083001,None,,,,,,,,,,,202,bathroom,2,2024-03-16_15h37.42.145,image_similarity_rating,2023.2.3,None,2024-03-16 15h38.01.704909 +0100,
