sub_num,trial,block,task,is_practice,category,image,texture,duration,mask_dur,jitter,stim_time,time_of_resp,trial_response,mask_time,fix_time,jit_onset,trial_end,trial_accuracy,RT
124,6,0,usability,1,kitchen,kitchen_practice2.tif,227,1.5,0,1.13333333333333,8597.526221458,8601.193656833,6,NaN,8601.1993015,8601.217531292,8602.344255708,NaN,NaN
124,7,0,usability,1,kitchen,kitchen_practice3.tif,228,1.5,0,0.933333333333333,8602.354767583,8605.968694333,7,NaN,8605.974636917,8605.992881917,8606.919555375,NaN,NaN
124,8,0,usability,1,kitchen,kitchen_practice1.tif,226,1.5,0,1.48333333333333,8606.937234833,8609.925205708,6,NaN,8609.952657958,8609.974288292,8611.4510445,NaN,NaN
124,9,0,usability,1,kitchen,kitchen_practice4.tif,229,1.5,0,1.33333333333333,8611.470009833,8614.152815083,5,NaN,8614.158545292,8614.176931333,8615.503660708,NaN,NaN
124,10,0,usability,1,kitchen,kitchen_practice5.tif,230,1.5,0,1.3,8615.520494083,8618.432842417,4,NaN,8618.4385975,8618.456791,8619.75018275,NaN,NaN
124,1,1,usability,0,kitchen,sun_amjjdeyrggfqgmom.tif,210,1.5,0,1.91666666666667,8624.57538325,8628.086952208,5,NaN,8628.093254292,8628.111608875,8630.021671542,NaN,NaN
124,2,1,usability,0,kitchen,sun_aymvwlarqodbwuoc.tif,218,1.5,0,0.85,8630.039782875,8634.129028792,4,NaN,8634.134758958,8634.153207875,8634.99654975,NaN,NaN
124,3,1,usability,0,kitchen,labelme_rykdqxenmhulbdn.tif,173,1.5,0,0.7,8635.00084525,8638.524622625,5,NaN,8638.542738458,8638.561096542,8639.254438375,NaN,NaN
124,4,1,usability,0,kitchen,sun_adgqasybjyktddhj.tif,188,1.5,0,1.6,8639.258603375,8642.354048458,3,NaN,8642.367070417,8642.386351,8643.979765042,NaN,NaN
124,5,1,usability,0,kitchen,sun_aehawpgmrlhlvcow.tif,191,1.5,0,1.13333333333333,8643.997971,8647.13706825,6,NaN,8647.142628375,8647.160969417,8648.287736208,NaN,NaN
124,6,1,usability,0,kitchen,sun_aadbddgrdsjugojn.tif,174,1.5,0,0.716666666666667,8648.296373417,8653.625399292,5,NaN,8653.630947042,8653.649310417,8654.359319375,NaN,NaN
124,7,1,usability,0,kitchen,sun_acwjdupvyjsugpay.tif,186,1.5,0,1.6,8654.363588958,8658.081229083,5,NaN,8658.086761542,8658.105335083,8659.698725625,NaN,NaN
124,8,1,usability,0,kitchen,sun_aixorpehvfykdynp.tif,205,1.5,0,1.68333333333333,8659.717157167,8670.841151417,5,NaN,8670.846639375,8670.864935083,8672.541691292,NaN,NaN
124,9,1,usability,0,kitchen,sun_auaiucuqpdausiva.tif,212,1.5,0,1.41666666666667,8672.561346875,8675.697177458,6,NaN,8675.726568125,8675.75012425,8677.160188292,NaN,NaN
124,10,1,usability,0,kitchen,sun_aamedkxepzlwuxes.tif,175,1.5,0,1,8677.181019875,8679.912905917,5,NaN,8679.918454208,8679.937278292,8680.9306195,NaN,NaN
124,11,1,usability,0,kitchen,sun_ahpczsiumwwocjkv.tif,202,1.5,0,1.33333333333333,8680.934814667,8683.715896792,4,NaN,8683.742567,8683.765883,8685.092649958,NaN,NaN
124,12,1,usability,0,kitchen,sun_aenotlpyftoioydp.tif,192,1.5,0,1.15,8685.110490417,8688.248975417,2,NaN,8688.25448025,8688.272595833,8689.416036875,NaN,NaN
124,13,1,usability,0,kitchen,sun_aexklacwqwezaorf.tif,194,1.5,0,1.86666666666667,8689.426889208,8692.953052417,5,NaN,8692.958577375,8692.976886958,8694.83699025,NaN,NaN
124,14,1,usability,0,kitchen,sun_aapllqyqlykszopd.tif,176,1.5,0,1.18333333333333,8694.857263208,8698.017955042,3,NaN,8698.047784083,8698.071407333,8699.248177125,NaN,NaN
124,15,1,usability,0,kitchen,sun_ahywdevtimnqcsln.tif,204,1.5,0,1.71666666666667,8699.25744325,8704.328933083,2,NaN,8704.334396917,8704.352746542,8706.06283825,NaN,NaN
124,16,1,usability,0,kitchen,sun_aggjlwcdjsjcaemh.tif,196,1.5,0,1.1,8706.082325292,8715.560730292,4,NaN,8715.56659175,8715.584967667,8716.678362875,NaN,NaN
124,17,1,usability,0,kitchen,sun_acxkpeoqbwcxfvip.tif,187,1.5,0,0.983333333333333,8716.686599792,8720.192606792,6,NaN,8720.198376042,8720.216707542,8721.193381417,NaN,NaN
124,18,1,usability,0,kitchen,sun_aeqdocilnnpuvuhx.tif,193,1.5,0,0.916666666666667,8721.1975795,8724.63316775,6,NaN,8724.638566042,8724.656928583,8725.566938708,NaN,NaN
124,19,1,usability,0,kitchen,sun_akcjzhbbjlbogpdi.tif,209,1.5,0,0.716666666666667,8725.571688208,8729.081128583,4,NaN,8729.086634542,8729.105449833,8729.815460417,NaN,NaN
124,20,1,usability,0,kitchen,sun_ajcbwwvdlsvjyzje.tif,206,1.5,0,0.883333333333333,8729.819769667,8733.225138125,7,NaN,8733.230509458,8733.248786458,8734.125461125,NaN,NaN
124,21,1,usability,0,kitchen,sun_azmutvzbxypaceni.tif,220,1.5,0,1.93333333333333,8734.129727042,8737.210963167,6,NaN,8737.223187417,8737.241844667,8739.168579667,NaN,NaN
124,22,1,usability,0,kitchen,sun_awcpdzzznmweyyhv.tif,216,1.5,0,0.9,8739.1870755,8742.112334375,7,NaN,8742.142342625,8742.165722917,8743.059066792,NaN,NaN
124,23,1,usability,0,kitchen,sun_aunzlwrbjumxhwdj.tif,213,1.5,0,1.13333333333333,8743.06379475,8747.656520917,1,NaN,8747.66218775,8747.680567042,8748.80732375,NaN,NaN
124,24,1,usability,0,kitchen,labelme_kxvouciolcpqplr.tif,172,1.5,0,0.766666666666667,8748.816177292,8753.073150625,2,NaN,8753.078742583,8753.097060833,8753.857067792,NaN,NaN
124,25,1,usability,0,kitchen,sun_agubuxuukhzyzpdp.tif,198,1.5,0,0.966666666666667,8753.861259375,8756.740039708,6,NaN,8756.768861,8756.79223625,8757.75224725,NaN,NaN
124,1,2,usability,0,kitchen,sun_ajkqhtgcbgpcwrwn.tif,207,1.5,0,1.56666666666667,8761.506056167,8764.664963,3,NaN,8764.670574,8764.688757917,8766.248841792,NaN,NaN
124,2,2,usability,0,kitchen,sun_avszsnwsbuqfgzbn.tif,215,1.5,0,1.2,8766.268395292,8771.176645042,5,NaN,8771.182974958,8771.201238042,8772.394654583,NaN,NaN
124,3,2,usability,0,kitchen,sun_admlmbcdswaszruo.tif,189,1.5,0,1.73333333333333,8772.410813375,8775.336082542,4,NaN,8775.341975708,8775.360316083,8777.087054875,NaN,NaN
124,4,2,usability,0,kitchen,sun_abdxkyyxwfskuaqb.tif,180,1.5,0,1.61666666666667,8777.107261125,8780.616969333,4,NaN,8780.623380958,8780.641735083,8782.251798292,NaN,NaN
124,5,2,usability,0,kitchen,sun_aypmqwcualkenuoe.tif,219,1.5,0,1.38333333333333,8782.271056,8792.024503333,4,NaN,8792.030951375,8792.0494335,8793.42616025,NaN,NaN
124,6,2,usability,0,kitchen,sun_agzzivivdpnawacl.tif,199,1.5,0,1.73333333333333,8793.444883167,8796.832321542,5,NaN,8796.83785725,8796.856105083,8798.582858917,NaN,NaN
124,7,2,usability,0,kitchen,sun_aaxxjlsuzvqlgylf.tif,178,1.5,0,1.96666666666667,8798.601794208,8803.320716333,6,NaN,8803.326215417,8803.344497167,8805.304569167,NaN,NaN
124,8,2,usability,0,kitchen,sun_abftihopvusyfakt.tif,181,1.5,0,0.883333333333333,8805.317337625,8811.272324792,7,NaN,8811.27847025,8811.297073875,8812.173746708,NaN,NaN
124,9,2,usability,0,kitchen,sun_agorklincwxrdtga.tif,197,1.5,0,1.06666666666667,8812.178374042,8816.384591042,6,NaN,8816.39003075,8816.408320792,8817.46838875,NaN,NaN
124,10,2,usability,0,kitchen,labelme_brsyyvweiuaazfr.tif,171,1.5,0,1.06666666666667,8817.47767975,8820.664406625,5,NaN,8820.6700025,8820.688141833,8821.748213833,NaN,NaN
124,11,2,usability,0,kitchen,sun_afuyedyxivkhecmu.tif,195,1.5,0,0.966666666666667,8821.757864792,8825.584435417,4,NaN,8825.589983833,8825.608367625,8826.568378208,NaN,NaN
124,12,2,usability,0,kitchen,sun_aegoxogugdkwpmpj.tif,190,1.5,0,1.78333333333333,8826.572963875,8829.224572833,7,NaN,8829.248489417,8829.270636,8831.047381167,NaN,NaN
124,13,2,usability,0,kitchen,sun_axyyrmzcupyhlivc.tif,217,1.5,0,1.68333333333333,8831.065470917,8833.828524208,6,NaN,8833.855457167,8833.879192042,8835.555934333,NaN,NaN
124,14,2,usability,0,kitchen,sun_abpwyqmlzafvklqo.tif,182,1.5,0,0.983333333333333,8835.575686958,8838.739902333,3,NaN,8838.769244875,8838.792449,8839.769124667,NaN,NaN
124,15,2,usability,0,kitchen,sun_abdenxonkemggwsq.tif,179,1.5,0,1.33333333333333,8839.773933792,8846.304861917,4,NaN,8846.31029275,8846.328588167,8847.655360167,NaN,NaN
124,16,2,usability,0,kitchen,sun_acgtpgfybqjmzeyw.tif,185,1.5,0,1.56666666666667,8847.673760667,8852.839736583,4,NaN,8852.845709917,8852.863984667,8854.424093083,NaN,NaN
124,17,2,usability,0,kitchen,sun_ahspylgoovwmwvgk.tif,203,1.5,0,1.66666666666667,8854.442465625,8860.479978208,3,NaN,8860.486311542,8860.504518083,8862.164625167,NaN,NaN
124,18,2,usability,0,kitchen,sun_auticobqsbwgoppi.tif,214,1.5,0,1.86666666666667,8862.182062167,8865.005663375,2,NaN,8865.034434792,8865.057711292,8866.917779083,NaN,NaN
124,19,2,usability,0,kitchen,sun_aqeaevwwwjoqhzvl.tif,211,1.5,0,1.95,8866.937547083,8870.864618375,4,NaN,8870.870017083,8870.888181417,8872.831635042,NaN,NaN
124,20,2,usability,0,kitchen,sun_acfmftudsenhrfhy.tif,184,1.5,0,0.966666666666667,8872.851374042,8875.724037917,4,NaN,8875.755552833,8875.778240375,8876.738247917,NaN,NaN
124,21,2,usability,0,kitchen,sun_abrcnpqqhmjwekyf.tif,183,1.5,0,1.43333333333333,8876.743142458,8882.232466792,5,NaN,8882.23784,8882.256068417,8883.682837958,NaN,NaN
124,22,2,usability,0,kitchen,sun_ahdycvpopffkzzsu.tif,200,1.5,0,0.85,8883.702118583,8886.792414333,2,NaN,8886.79807575,8886.816455958,8887.659797625,NaN,NaN
124,23,2,usability,0,kitchen,sun_ahljzhgcdpomplvg.tif,201,1.5,0,1.53333333333333,8887.664169042,8890.451804667,3,NaN,8890.481462583,8890.505140792,8892.031886208,NaN,NaN
124,24,2,usability,0,kitchen,sun_akchetnepxlcxhsu.tif,208,1.5,0,1.18333333333333,8892.051309,8901.776500583,3,NaN,8901.782081167,8901.800426792,8902.977160208,NaN,NaN
124,25,2,usability,0,kitchen,sun_aarfiyshqohlwkmo.tif,177,1.5,0,1.86666666666667,8902.988662208,8909.5686005,4,NaN,8909.574345292,8909.592788583,8911.4528955,NaN,NaN
