sub_num,trial,block,task,is_practice,category,image,texture,duration,mask_dur,jitter,stim_time,time_of_resp,trial_response,mask_time,fix_time,jit_onset,trial_end,trial_accuracy,RT
109,6,0,aesthetic,1,kitchen,kitchen_practice2.tif,227,1.5,0,1.08333333333333,8817.374481833,8821.529114875,3,NaN,8821.536071542,8821.554378667,8822.631116167,NaN,NaN
109,7,0,aesthetic,1,kitchen,kitchen_practice1.tif,226,1.5,0,1.06666666666667,8822.641990417,8825.825085542,2,NaN,8825.830986417,8825.849277792,8826.909371,NaN,NaN
109,8,0,aesthetic,1,kitchen,kitchen_practice4.tif,229,1.5,0,1.11666666666667,8826.921467167,8829.905020542,3,NaN,8829.910855333,8829.929298708,8831.039395542,NaN,NaN
109,9,0,aesthetic,1,kitchen,kitchen_practice3.tif,228,1.5,0,0.95,8831.049512917,8834.432892708,4,NaN,8834.438919917,8834.457204667,8835.400544083,NaN,NaN
109,10,0,aesthetic,1,kitchen,kitchen_practice5.tif,230,1.5,0,0.9,8835.405271042,8838.977383917,4,NaN,8838.983318375,8839.001583375,8839.894924792,NaN,NaN
109,1,1,aesthetic,0,kitchen,sun_ahljzhgcdpomplvg.tif,201,1.5,0,1.48333333333333,8845.41328,8848.156174708,3,NaN,8848.187062667,8848.21049075,8849.687218167,NaN,NaN
109,2,1,aesthetic,0,kitchen,sun_afuyedyxivkhecmu.tif,195,1.5,0,1.46666666666667,8849.705798125,8852.632701375,1,NaN,8852.638915,8852.65730225,8854.117357708,NaN,NaN
109,3,1,aesthetic,0,kitchen,sun_adgqasybjyktddhj.tif,188,1.5,0,0.766666666666667,8854.134779542,8856.929439333,3,NaN,8856.935388458,8856.953690417,8857.713699375,NaN,NaN
109,4,1,aesthetic,0,kitchen,sun_ahpczsiumwwocjkv.tif,202,1.5,0,1.16666666666667,8857.719455958,8861.721448417,4,NaN,8861.727512042,8861.745835708,8862.905911375,NaN,NaN
109,5,1,aesthetic,0,kitchen,sun_agorklincwxrdtga.tif,197,1.5,0,1.6,8862.914558083,8866.041618417,4,NaN,8866.047829625,8866.066166542,8867.659607042,NaN,NaN
109,6,1,aesthetic,0,kitchen,sun_auaiucuqpdausiva.tif,212,1.5,0,1.68333333333333,8867.677086125,8871.432374708,5,NaN,8871.439046,8871.457831917,8873.134567583,NaN,NaN
109,7,1,aesthetic,0,kitchen,sun_aapllqyqlykszopd.tif,176,1.5,0,1.5,8873.156623542,8876.084127542,3,NaN,8876.11479125,8876.138480542,8877.631898167,NaN,NaN
109,8,1,aesthetic,0,kitchen,sun_awcpdzzznmweyyhv.tif,216,1.5,0,0.833333333333333,8877.647340458,8880.696987083,4,NaN,8880.703145875,8880.721533667,8881.548207875,NaN,NaN
109,9,1,aesthetic,0,kitchen,sun_aadbddgrdsjugojn.tif,174,1.5,0,0.9,8881.5524525,8884.444328208,2,NaN,8884.4753215,8884.498393708,8885.391737083,NaN,NaN
109,10,1,aesthetic,0,kitchen,sun_aegoxogugdkwpmpj.tif,190,1.5,0,0.933333333333333,8885.396622792,8889.088599417,3,NaN,8889.094757375,8889.113122875,8890.039800208,NaN,NaN
109,11,1,aesthetic,0,kitchen,sun_abrcnpqqhmjwekyf.tif,183,1.5,0,0.9,8890.044471792,8893.744977625,4,NaN,8893.750951167,8893.77006175,8894.663402083,NaN,NaN
109,12,1,aesthetic,0,kitchen,sun_avszsnwsbuqfgzbn.tif,215,1.5,0,0.85,8894.668570375,8897.66105325,3,NaN,8897.691274417,8897.714764125,8898.558105667,NaN,NaN
109,13,1,aesthetic,0,kitchen,labelme_kxvouciolcpqplr.tif,172,1.5,0,1.83333333333333,8898.562861417,8901.582559833,2,NaN,8901.613688667,8901.635140125,8903.461888875,NaN,NaN
109,14,1,aesthetic,0,kitchen,sun_agzzivivdpnawacl.tif,199,1.5,0,0.733333333333333,8903.477618833,8906.284691542,1,NaN,8906.314999792,8906.338772458,8907.065450083,NaN,NaN
109,15,1,aesthetic,0,kitchen,sun_aunzlwrbjumxhwdj.tif,213,1.5,0,1.63333333333333,8907.083829625,8909.821221417,1,NaN,8909.853313833,8909.876795417,8911.503558958,NaN,NaN
109,16,1,aesthetic,0,kitchen,sun_aymvwlarqodbwuoc.tif,218,1.5,0,0.766666666666667,8911.521152708,8914.643241917,5,NaN,8914.660542958,8914.681731917,8915.441741625,NaN,NaN
109,17,1,aesthetic,0,kitchen,sun_abpwyqmlzafvklqo.tif,182,1.5,0,1.71666666666667,8915.446501875,8919.080279333,2,NaN,8919.086447875,8919.104814458,8920.814868042,NaN,NaN
109,18,1,aesthetic,0,kitchen,sun_abdxkyyxwfskuaqb.tif,180,1.5,0,1.51666666666667,8920.833852208,8923.663470833,6,NaN,8923.693931875,8923.716829917,8925.226877167,NaN,NaN
109,19,1,aesthetic,0,kitchen,sun_aaxxjlsuzvqlgylf.tif,178,1.5,0,1.25,8925.23939825,8928.304270458,5,NaN,8928.310351667,8928.328624083,8929.572049583,NaN,NaN
109,20,1,aesthetic,0,kitchen,sun_azmutvzbxypaceni.tif,220,1.5,0,1.41666666666667,8929.590778125,8932.688032542,4,NaN,8932.694639458,8932.712904208,8934.122987083,NaN,NaN
109,21,1,aesthetic,0,kitchen,sun_axyyrmzcupyhlivc.tif,217,1.5,0,1.1,8934.140384208,8937.968039167,4,NaN,8937.974515542,8937.992768917,8939.08617775,NaN,NaN
109,22,1,aesthetic,0,kitchen,sun_ajkqhtgcbgpcwrwn.tif,207,1.5,0,0.95,8939.101444542,8941.7842025,2,NaN,8941.7903055,8941.808507958,8942.751851458,NaN,NaN
109,23,1,aesthetic,0,kitchen,sun_aamedkxepzlwuxes.tif,175,1.5,0,1.45,8942.766906042,8946.032125292,1,NaN,8946.039018083,8946.057372917,8947.500809833,NaN,NaN
109,24,1,aesthetic,0,kitchen,sun_akcjzhbbjlbogpdi.tif,209,1.5,0,0.883333333333333,8947.521331667,8951.568698833,1,NaN,8951.575347833,8951.59403625,8952.470709417,NaN,NaN
109,25,1,aesthetic,0,kitchen,sun_ahywdevtimnqcsln.tif,204,1.5,0,1.23333333333333,8952.475340292,8956.505032458,2,NaN,8956.511834417,8956.530460833,8957.757222458,NaN,NaN
109,1,2,aesthetic,0,kitchen,sun_aeqdocilnnpuvuhx.tif,193,1.5,0,1.78333333333333,8963.236676583,8966.528430917,2,NaN,8966.534618792,8966.552946208,8968.329699917,NaN,NaN
109,2,2,aesthetic,0,kitchen,sun_aggjlwcdjsjcaemh.tif,196,1.5,0,1.8,8968.347254833,8971.205582625,4,NaN,8971.236980875,8971.260618083,8973.054048875,NaN,NaN
109,3,2,aesthetic,0,kitchen,sun_aixorpehvfykdynp.tif,205,1.5,0,0.8,8973.073061042,8976.420663542,3,NaN,8976.446059958,8976.47002975,8977.263372667,NaN,NaN
109,4,2,aesthetic,0,kitchen,sun_acfmftudsenhrfhy.tif,184,1.5,0,1.01666666666667,8977.268609667,8980.38418,5,NaN,8980.406172292,8980.426472125,8981.436561958,NaN,NaN
109,5,2,aesthetic,0,kitchen,sun_acxkpeoqbwcxfvip.tif,187,1.5,0,0.85,8981.447405417,8984.376259167,6,NaN,8984.382278375,8984.400758042,8985.244100708,NaN,NaN
109,6,2,aesthetic,0,kitchen,sun_admlmbcdswaszruo.tif,189,1.5,0,1.83333333333333,8985.248695708,8988.367815875,7,NaN,8988.3756175,8988.3940645,8990.220801708,NaN,NaN
109,7,2,aesthetic,0,kitchen,sun_aexklacwqwezaorf.tif,194,1.5,0,1.11666666666667,8990.233541542,8993.840838,6,NaN,8993.846893917,8993.865447292,8994.975532708,NaN,NaN
109,8,2,aesthetic,0,kitchen,sun_agubuxuukhzyzpdp.tif,198,1.5,0,1.88333333333333,8994.98561875,8997.82474475,3,NaN,8997.830564125,8997.848882458,8999.725625708,NaN,NaN
109,9,2,aesthetic,0,kitchen,sun_aypmqwcualkenuoe.tif,219,1.5,0,0.916666666666667,8999.745617208,9003.376098917,6,NaN,9003.382752792,9003.401839667,9004.311847125,NaN,NaN
109,10,2,aesthetic,0,kitchen,labelme_rykdqxenmhulbdn.tif,173,1.5,0,1.05,9004.316303125,9007.712197292,4,NaN,9007.71888825,9007.737331458,9008.780760958,NaN,NaN
109,11,2,aesthetic,0,kitchen,sun_aqeaevwwwjoqhzvl.tif,211,1.5,0,1.35,9008.791310542,9012.352373625,5,NaN,9012.358180958,9012.376582042,9013.719991792,NaN,NaN
109,12,2,aesthetic,0,kitchen,sun_ahspylgoovwmwvgk.tif,203,1.5,0,1.01666666666667,9013.739427542,9017.000405875,6,NaN,9017.006364375,9017.024851458,9018.034928,NaN,NaN
109,13,2,aesthetic,0,kitchen,sun_aehawpgmrlhlvcow.tif,191,1.5,0,2,9018.044250917,9021.160020042,6,NaN,9021.165994292,9021.185115583,9023.178552333,NaN,NaN
109,14,2,aesthetic,0,kitchen,sun_ahdycvpopffkzzsu.tif,200,1.5,0,0.9,9023.196154083,9026.864469708,1,NaN,9026.870410708,9026.888884625,9027.782228417,NaN,NaN
109,15,2,aesthetic,0,kitchen,sun_akchetnepxlcxhsu.tif,208,1.5,0,1.15,9027.799859583,9030.895513542,5,NaN,9030.918321458,9030.938180875,9032.0816115,NaN,NaN
109,16,2,aesthetic,0,kitchen,sun_abdenxonkemggwsq.tif,179,1.5,0,1.23333333333333,9032.092366375,9034.935977542,7,NaN,9034.9419355,9034.960418042,9036.187173583,NaN,NaN
109,17,2,aesthetic,0,kitchen,sun_ajcbwwvdlsvjyzje.tif,206,1.5,0,1.03333333333333,9036.206654,9039.616076,5,NaN,9039.622104542,9039.640516875,9040.66723775,NaN,NaN
109,18,2,aesthetic,0,kitchen,sun_acgtpgfybqjmzeyw.tif,185,1.5,0,0.783333333333333,9040.675792625,9044.655606167,3,NaN,9044.6622435,9044.680488458,9045.457165583,NaN,NaN
109,19,2,aesthetic,0,kitchen,sun_acwjdupvyjsugpay.tif,186,1.5,0,0.766666666666667,9045.461661083,9049.744406792,3,NaN,9049.750208417,9049.76849275,9050.528499542,NaN,NaN
109,20,2,aesthetic,0,kitchen,sun_auticobqsbwgoppi.tif,214,1.5,0,1.18333333333333,9050.5327095,9053.641851417,1,NaN,9053.656940042,9053.676988208,9054.8537575,NaN,NaN
109,21,2,aesthetic,0,kitchen,sun_aenotlpyftoioydp.tif,192,1.5,0,0.7,9054.863213125,9057.743974917,1,NaN,9057.750106875,9057.768304958,9058.461647333,NaN,NaN
109,22,2,aesthetic,0,kitchen,labelme_brsyyvweiuaazfr.tif,171,1.5,0,0.7,9058.4659615,9061.476396458,4,NaN,9061.504259583,9061.527308625,9062.220649292,NaN,NaN
109,23,2,aesthetic,0,kitchen,sun_abftihopvusyfakt.tif,181,1.5,0,1.55,9062.225487125,9065.201429583,6,NaN,9065.233149125,9065.25650425,9066.799926958,NaN,NaN
109,24,2,aesthetic,0,kitchen,sun_aarfiyshqohlwkmo.tif,177,1.5,0,1.16666666666667,9066.822202875,9070.191862042,5,NaN,9070.197828958,9070.216207042,9071.376278875,NaN,NaN
109,25,2,aesthetic,0,kitchen,sun_amjjdeyrggfqgmom.tif,210,1.5,0,1.68333333333333,9071.387528,9074.239934458,7,NaN,9074.245890917,9074.264244583,9075.940984375,NaN,NaN
