sub_num,trial,block,task,is_practice,category,image,texture,duration,mask_dur,jitter,stim_time,time_of_resp,trial_response,mask_time,fix_time,jit_onset,trial_end,trial_accuracy,RT
120,1,19,categorization,0,bathroom,SHINEd_sun_auzqhkafidnkrwmo.tif,54,0.0666666666666667,0.0666666666666667,1.48333333333333,1487253.5572321,1487254.5061588,70,1487253.6283682,1487253.6919544,1487254.5113042,1487255.992975,NaN,NaN
120,2,19,categorization,0,bathroom,SHINEd_sun_aofnryafpsjimzsb.tif,40,0.0666666666666667,0.0666666666666667,0.783333333333333,1487255.9991029,1487256.5891565,74,1487256.0699133,1487256.1342342,1487256.5944488,1487257.3761193,NaN,NaN
120,3,19,categorization,0,bathroom,SHINEd_sun_anryaplzeujmzfkd.tif,39,0.0666666666666667,0.0666666666666667,1.7,1487257.3820832,1487258.081587,74,1487257.4537357,1487257.5173658,1487258.0869285,1487259.7852651,NaN,NaN
120,4,19,categorization,0,kitchen,SHINEd_sun_abdenxonkemggwsq.tif,69,0.0666666666666667,0.0666666666666667,1.93333333333333,1487259.7915396,1487260.5172365,70,1487259.8622868,1487259.9266293,1487260.5226366,1487262.4543079,NaN,NaN
120,5,19,categorization,0,bathroom,SHINEd_sun_ausgutylgojavyoq.tif,53,0.0666666666666667,0.0666666666666667,1.73333333333333,1487262.4610714,1487262.954538,74,1487262.5326955,1487262.5965623,1487262.9597554,1487264.6914267,NaN,NaN
120,6,19,categorization,0,kitchen,SHINEd_labelme_brsyyvweiuaazfr.tif,61,0.0666666666666667,0.0666666666666667,0.866666666666667,1487264.6977374,1487265.4067716,70,1487264.768441,1487264.8336843,1487265.4122215,1487266.2772262,NaN,NaN
120,7,19,categorization,0,bathroom,SHINEd_sun_afcoljnjfoxjtgja.tif,20,0.0666666666666667,0.0666666666666667,1.85,1487266.2833522,1487267.2356149,74,1487266.3540011,1487266.4186487,1487267.2410466,1487269.0893846,NaN,NaN
120,8,19,categorization,0,kitchen,SHINEd_labelme_rykdqxenmhulbdn.tif,63,0.0666666666666667,0.0666666666666667,0.966666666666667,1487269.095639,1487269.9016559,70,1487269.166151,1487269.2307212,1487269.9067551,1487270.8717603,NaN,NaN
120,9,19,categorization,0,bathroom,SHINEd_sun_apmqjbnwghzuhhzh.tif,46,0.0666666666666667,0.0666666666666667,0.733333333333333,1487270.8784049,1487271.5633073,74,1487270.948981,1487271.0133096,1487271.5696935,1487272.3013643,NaN,NaN
120,10,19,categorization,0,kitchen,SHINEd_sun_aehawpgmrlhlvcow.tif,81,0.0666666666666667,0.0666666666666667,0.733333333333333,1487272.306742,1487272.9902289,70,1487272.3776481,1487272.4419431,1487272.9953671,1487273.7270394,NaN,NaN
120,11,19,categorization,0,bathroom,SHINEd_sun_agyqfjcfkdcydepw.tif,25,0.0666666666666667,0.0666666666666667,1.93333333333333,1487273.7327595,1487274.3634727,74,1487273.8035811,1487273.867847,1487274.3685362,1487276.3002073,NaN,NaN
120,12,19,categorization,0,bathroom,SHINEd_sun_anhioqovhscjqqwb.tif,38,0.0666666666666667,0.0666666666666667,1.1,1487276.3065446,1487277.0747937,74,1487276.3775998,1487276.4420778,1487277.0800541,1487278.1783916,NaN,NaN
120,13,19,categorization,0,bathroom,SHINEd_sun_ambriybtogmepttm.tif,36,0.0666666666666667,0.0666666666666667,1.8,1487278.1845684,1487279.2067409,74,1487278.2554033,1487278.3208092,1487279.2131359,1487281.0114731,NaN,NaN
120,14,19,categorization,0,bathroom,SHINEd_sun_awnqiikzaispgmwo.tif,56,0.0666666666666667,0.0666666666666667,0.733333333333333,1487281.0176543,1487281.6264615,74,1487281.0885933,1487281.1526378,1487281.6324754,1487282.3641456,NaN,NaN
120,15,19,categorization,0,bathroom,SHINEd_sun_alkosphxlxwjwgjd.tif,34,0.0666666666666667,0.0666666666666667,1.5,1487282.3706653,1487283.0793554,74,1487282.4416508,1487282.5058663,1487283.0847562,1487284.583093,NaN,NaN
120,16,19,categorization,0,kitchen,SHINEd_sun_ayqymgxqhxxiykiw.tif,109,0.0666666666666667,0.0666666666666667,0.8,1487284.5892672,1487285.3266008,70,1487284.6605588,1487284.7242828,1487285.3327549,1487286.1310928,NaN,NaN
120,17,19,categorization,0,kitchen,SHINEd_sun_abpwyqmlzafvklqo.tif,72,0.0666666666666667,0.0666666666666667,0.95,1487286.1373464,1487287.2667082,70,1487286.2088267,1487286.2727463,1487287.2724759,1487288.2208128,NaN,NaN
120,18,19,categorization,0,kitchen,SHINEd_sun_aggjlwcdjsjcaemh.tif,86,0.0666666666666667,0.0666666666666667,1.1,1487288.2270652,1487289.0002853,70,1487288.2984492,1487288.3622314,1487289.0065661,1487290.1049036,NaN,NaN
120,19,19,categorization,0,kitchen,SHINEd_sun_aypmqwcualkenuoe.tif,108,0.0666666666666667,0.0666666666666667,1.63333333333333,1487290.1111322,1487290.8900952,70,1487290.1818486,1487290.2465359,1487290.8957554,1487292.527427,NaN,NaN
120,20,19,categorization,0,kitchen,SHINEd_sun_acwjdupvyjsugpay.tif,76,0.0666666666666667,0.0666666666666667,1.71666666666667,1487292.5336981,1487293.1458947,70,1487292.6051999,1487292.6690968,1487293.1515757,1487294.8665809,NaN,NaN
120,21,19,categorization,0,bathroom,SHINEd_sun_asfwthctfqerjvxr.tif,49,0.0666666666666667,0.0666666666666667,1.43333333333333,1487294.8726414,1487295.5506998,74,1487294.9439649,1487295.0080436,1487295.5567532,1487296.9884227,NaN,NaN
120,22,19,categorization,0,bathroom,SHINEd_sun_akiytfaagpdsphgz.tif,31,0.0666666666666667,0.0666666666666667,0.966666666666667,1487296.9940697,1487297.6381274,74,1487297.066547,1487297.1305625,1487297.6439005,1487298.6089147,NaN,NaN
120,23,19,categorization,0,kitchen,SHINEd_sun_acxkpeoqbwcxfvip.tif,77,0.0666666666666667,0.0666666666666667,1.61666666666667,1487298.6147269,1487299.3570578,70,1487298.6862718,1487298.7500751,1487299.3629929,1487300.9779979,NaN,NaN
120,24,19,categorization,0,kitchen,SHINEd_sun_agzzivivdpnawacl.tif,89,0.0666666666666667,0.0666666666666667,0.866666666666667,1487300.9838235,1487301.7811809,70,1487301.0547712,1487301.1195202,1487301.7867196,1487302.6517257,NaN,NaN
120,25,19,categorization,0,bathroom,SHINEd_sun_azqyogdvyhahyram.tif,60,0.0666666666666667,0.0666666666666667,1.25,1487302.6579086,1487303.3602983,74,1487302.7291114,1487302.7936374,1487303.3661627,1487304.6145002,NaN,NaN
120,26,19,categorization,0,bathroom,SHINEd_sun_aleqenyvunhactkl.tif,32,0.0666666666666667,0.0666666666666667,0.716666666666667,1487304.6206059,1487305.363982,74,1487304.6918202,1487304.7558211,1487305.3697692,1487306.084774,NaN,NaN
120,27,19,categorization,0,kitchen,SHINEd_sun_auticobqsbwgoppi.tif,103,0.0666666666666667,0.0666666666666667,1.71666666666667,1487306.0909495,1487307.0097887,70,1487306.1619974,1487306.2264301,1487307.0154441,1487308.7304474,NaN,NaN
120,28,19,categorization,0,bathroom,SHINEd_sun_alotolagknyrgtsk.tif,35,0.0666666666666667,0.0666666666666667,1.31666666666667,1487308.7365651,1487309.6531194,74,1487308.8076204,1487308.8734698,1487309.6590021,1487310.9740058,NaN,NaN
120,29,19,categorization,0,bathroom,SHINEd_sun_acduarbnmmoglmiv.tif,16,0.0666666666666667,0.0666666666666667,0.9,1487310.9804536,1487311.7182738,74,1487311.0516371,1487311.1158798,1487311.7234854,1487312.621824,NaN,NaN
120,30,19,categorization,0,bathroom,SHINEd_sun_abjtwfukuwddzted.tif,15,0.0666666666666667,0.0666666666666667,1,1487312.6273735,1487313.5791438,70,1487312.6982505,1487312.7627462,1487313.5853526,1487314.5836895,NaN,NaN
120,31,19,categorization,0,kitchen,SHINEd_sun_ahdycvpopffkzzsu.tif,90,0.0666666666666667,0.0666666666666667,1.15,1487314.5912043,1487315.4897412,74,1487314.6625497,1487314.7270018,1487315.4954878,1487316.6438245,NaN,NaN
120,32,19,categorization,0,kitchen,SHINEd_sun_aarfiyshqohlwkmo.tif,67,0.0666666666666667,0.0666666666666667,1.55,1487316.6512461,1487317.2770179,70,1487316.7218512,1487316.7860467,1487317.283317,1487318.8316542,NaN,NaN
120,33,19,categorization,0,bathroom,SHINEd_sun_axldvoqbuvuggfmq.tif,57,0.0666666666666667,0.0666666666666667,1.13333333333333,1487318.8382024,1487319.6335906,74,1487318.9100819,1487318.9732638,1487319.6389886,1487320.7706606,NaN,NaN
120,34,19,categorization,0,bathroom,SHINEd_sun_apkxzenqapsujocq.tif,45,0.0666666666666667,0.0666666666666667,1.35,1487320.7769682,1487321.339262,74,1487320.8478998,1487320.9129817,1487321.3455938,1487322.6939324,NaN,NaN
120,35,19,categorization,0,kitchen,SHINEd_sun_aamedkxepzlwuxes.tif,65,0.0666666666666667,0.0666666666666667,0.7,1487322.7008059,1487323.3162179,70,1487322.7733525,1487322.8359611,1487323.3216584,1487324.0199955,NaN,NaN
120,36,19,categorization,0,kitchen,SHINEd_sun_ajkqhtgcbgpcwrwn.tif,96,0.0666666666666667,0.0666666666666667,0.916666666666667,1487324.0267511,1487324.6921995,70,1487324.0992224,1487324.1621189,1487324.6977124,1487325.6127166,NaN,NaN
120,37,19,categorization,0,kitchen,SHINEd_sun_acfmftudsenhrfhy.tif,74,0.0666666666666667,0.0666666666666667,1.38333333333333,1487325.6185918,1487326.2402797,70,1487325.6891519,1487325.7544463,1487326.2457852,1487327.6274561,NaN,NaN
120,38,19,categorization,0,bathroom,SHINEd_sun_apkruvsevgegsdwp.tif,44,0.0666666666666667,0.0666666666666667,1.98333333333333,1487327.6347419,1487328.264639,74,1487327.7053741,1487327.7703456,1487328.270555,1487330.2522269,NaN,NaN
120,39,19,categorization,0,kitchen,SHINEd_sun_aapllqyqlykszopd.tif,66,0.0666666666666667,0.0666666666666667,1.21666666666667,1487330.2578997,1487330.947549,70,1487330.3288389,1487330.3942924,1487330.9526668,1487332.1676698,NaN,NaN
120,40,19,categorization,0,kitchen,SHINEd_sun_auaiucuqpdausiva.tif,101,0.0666666666666667,0.0666666666666667,0.883333333333333,1487332.1736503,1487332.8226564,70,1487332.2452965,1487332.3093592,1487332.8287811,1487333.7104524,NaN,NaN
120,41,19,categorization,0,kitchen,SHINEd_sun_awcpdzzznmweyyhv.tif,105,0.0666666666666667,0.0666666666666667,1.36666666666667,1487333.7167296,1487334.394213,70,1487333.7877575,1487333.8521406,1487334.399551,1487335.7645671,NaN,NaN
120,42,19,categorization,0,kitchen,SHINEd_sun_aunzlwrbjumxhwdj.tif,102,0.0666666666666667,0.0666666666666667,1.78333333333333,1487335.7710626,1487336.3850322,70,1487335.8421465,1487335.9070135,1487336.3907663,1487338.1724384,NaN,NaN
120,43,19,categorization,0,kitchen,SHINEd_sun_ahljzhgcdpomplvg.tif,91,0.0666666666666667,0.0666666666666667,1.53333333333333,1487338.1787022,1487338.7882486,70,1487338.2496043,1487338.3140333,1487338.7935371,1487340.3252091,NaN,NaN
120,44,19,categorization,0,bathroom,SHINEd_sun_ahijqszoswveeyji.tif,28,0.0666666666666667,0.0666666666666667,0.8,1487340.3310467,1487341.0971068,74,1487340.4027231,1487340.4660797,1487341.1024873,1487341.9008333,NaN,NaN
120,45,19,categorization,0,bathroom,SHINEd_sun_aljolscmmzydegqp.tif,33,0.0666666666666667,0.0666666666666667,1,1487341.9070731,1487342.5370565,74,1487341.9779504,1487342.0420486,1487342.5435097,1487343.5418498,NaN,NaN
120,46,19,categorization,0,bathroom,SHINEd_sun_apynckhmoftszqoq.tif,47,0.0666666666666667,0.0666666666666667,1.01666666666667,1487343.5479807,1487344.1724842,74,1487343.6201834,1487343.6844745,1487344.1783739,1487345.1933792,NaN,NaN
120,47,19,categorization,0,kitchen,SHINEd_sun_aegoxogugdkwpmpj.tif,80,0.0666666666666667,0.0666666666666667,1.83333333333333,1487345.1996993,1487345.8295492,70,1487345.2712106,1487345.3350483,1487345.8347173,1487347.6663882,NaN,NaN
120,48,19,categorization,0,bathroom,SHINEd_sun_avhrdrntsqrjzccq.tif,55,0.0666666666666667,0.0666666666666667,1.03333333333333,1487347.6724385,1487348.2350019,74,1487347.7446267,1487347.8077907,1487348.2402206,1487349.2718917,NaN,NaN
120,49,19,categorization,0,bathroom,SHINEd_sun_aunuadmjocsddsrl.tif,52,0.0666666666666667,0.0666666666666667,1.16666666666667,1487349.2777345,1487350.1130603,74,1487349.3494273,1487349.4142808,1487350.1184082,1487351.2834131,NaN,NaN
120,50,19,categorization,0,kitchen,SHINEd_sun_akcjzhbbjlbogpdi.tif,98,0.0666666666666667,0.0666666666666667,1,1487351.2893535,1487351.9118692,70,1487351.3604548,1487351.4249037,1487351.9179008,1487352.9162389,NaN,NaN
