sub_num,trial,block,task,is_practice,category,image,texture,duration,mask_dur,jitter,stim_time,time_of_resp,trial_response,mask_time,fix_time,jit_onset,trial_end,trial_accuracy,RT
120,1,17,categorization,0,bathroom,SHINEd_sun_ausgutylgojavyoq.tif,53,0.0666666666666667,0.0666666666666667,0.9,1487025.0623915,1487025.6728237,74,1487025.1331493,1487025.197495,1487025.6781912,1487026.5765281,NaN,NaN
120,2,17,categorization,0,kitchen,SHINEd_sun_ajkqhtgcbgpcwrwn.tif,96,0.0666666666666667,0.0666666666666667,1.65,1487026.5825012,1487027.443522,70,1487026.6530097,1487026.7172532,1487027.4490425,1487029.0973809,NaN,NaN
120,3,17,categorization,0,kitchen,SHINEd_sun_acwjdupvyjsugpay.tif,76,0.0666666666666667,0.0666666666666667,1.18333333333333,1487029.103942,1487029.84642,70,1487029.1754704,1487029.2406647,1487029.8524807,1487031.034153,NaN,NaN
120,4,17,categorization,0,bathroom,SHINEd_sun_abjtwfukuwddzted.tif,15,0.0666666666666667,0.0666666666666667,1.18333333333333,1487031.0403249,1487031.8665496,74,1487031.1111195,1487031.1761894,1487031.8726075,1487033.0542792,NaN,NaN
120,5,17,categorization,0,kitchen,SHINEd_sun_agzzivivdpnawacl.tif,89,0.0666666666666667,0.0666666666666667,0.766666666666667,1487033.060725,1487033.7465781,70,1487033.1317967,1487033.1959776,1487033.7526057,1487034.5176191,NaN,NaN
120,6,17,categorization,0,bathroom,SHINEd_sun_avhrdrntsqrjzccq.tif,55,0.0666666666666667,0.0666666666666667,1.1,1487034.523778,1487035.1983373,74,1487034.5951323,1487034.6602596,1487035.2039243,1487036.3022619,NaN,NaN
120,7,17,categorization,0,bathroom,SHINEd_sun_abapwbhyhkfixyex.tif,14,0.0666666666666667,0.0666666666666667,1.98333333333333,1487036.3088628,1487037.0860372,74,1487036.3797291,1487036.4450138,1487037.091979,1487039.0736491,NaN,NaN
120,8,17,categorization,0,bathroom,SHINEd_sun_amzlamotzwfkwjco.tif,37,0.0666666666666667,0.0666666666666667,0.8,1487039.0808884,1487039.8916455,74,1487039.1520797,1487039.2165731,1487039.8969843,1487040.6953369,NaN,NaN
120,9,17,categorization,0,bathroom,SHINEd_sun_aavhrsfjbserjtht.tif,13,0.0666666666666667,0.0666666666666667,1.68333333333333,1487040.7021118,1487041.4489974,74,1487040.7732521,1487040.8371729,1487041.4542252,1487043.1359066,NaN,NaN
120,10,17,categorization,0,bathroom,SHINEd_sun_aleqenyvunhactkl.tif,32,0.0666666666666667,0.0666666666666667,1.73333333333333,1487043.1419188,1487043.7643462,74,1487043.212743,1487043.2768381,1487043.7699033,1487045.5015757,NaN,NaN
120,11,17,categorization,0,bathroom,SHINEd_sun_ahijqszoswveeyji.tif,28,0.0666666666666667,0.0666666666666667,0.766666666666667,1487045.5075628,1487046.1606608,74,1487045.5790569,1487045.6430809,1487046.1665844,1487046.9315899,NaN,NaN
120,12,17,categorization,0,kitchen,SHINEd_sun_auticobqsbwgoppi.tif,103,0.0666666666666667,0.0666666666666667,1.43333333333333,1487046.9375844,1487047.769678,70,1487047.0083502,1487047.0730402,1487047.7758432,1487049.2075156,NaN,NaN
120,13,17,categorization,0,bathroom,SHINEd_sun_afcoljnjfoxjtgja.tif,20,0.0666666666666667,0.0666666666666667,0.7,1487049.2139352,1487049.8658056,74,1487049.2851582,1487049.349324,1487049.8711221,1487050.5694593,NaN,NaN
120,14,17,categorization,0,bathroom,SHINEd_sun_acegryoqftbzowsg.tif,17,0.0666666666666667,0.0666666666666667,1.01666666666667,1487050.5754411,1487051.3332864,74,1487050.6480375,1487050.7105077,1487051.3386673,1487052.353673,NaN,NaN
120,15,17,categorization,0,kitchen,SHINEd_sun_aqeaevwwwjoqhzvl.tif,100,0.0666666666666667,0.0666666666666667,1.71666666666667,1487052.3599205,1487053.1849019,70,1487052.4318785,1487052.4949662,1487053.1907539,1487054.9057688,NaN,NaN
120,16,17,categorization,0,bathroom,SHINEd_sun_aghyqhbptboemmoq.tif,23,0.0666666666666667,0.0666666666666667,1.73333333333333,1487054.9123589,1487055.5236327,74,1487054.9851065,1487055.0479755,1487055.529098,1487057.2607696,NaN,NaN
120,17,17,categorization,0,kitchen,SHINEd_sun_afuyedyxivkhecmu.tif,85,0.0666666666666667,0.0666666666666667,1.93333333333333,1487057.2672226,1487058.0322261,70,1487057.3386284,1487057.403796,1487058.0375582,1487059.9692287,NaN,NaN
120,18,17,categorization,0,bathroom,SHINEd_sun_apkruvsevgegsdwp.tif,44,0.0666666666666667,0.0666666666666667,1.1,1487059.9754905,1487060.5754366,74,1487060.0465714,1487060.1103506,1487060.5812881,1487061.6796247,NaN,NaN
120,19,17,categorization,0,bathroom,SHINEd_sun_alotolagknyrgtsk.tif,35,0.0666666666666667,0.0666666666666667,0.933333333333333,1487061.6853341,1487062.3676587,74,1487061.7567165,1487061.8204555,1487062.3732477,1487063.3049191,NaN,NaN
120,20,17,categorization,0,kitchen,SHINEd_labelme_brsyyvweiuaazfr.tif,61,0.0666666666666667,0.0666666666666667,1.16666666666667,1487063.3124503,1487063.9592365,70,1487063.3838731,1487063.4481265,1487063.9652733,1487065.1302772,NaN,NaN
120,21,17,categorization,0,kitchen,SHINEd_sun_akcjzhbbjlbogpdi.tif,98,0.0666666666666667,0.0666666666666667,1.08333333333333,1487065.1365091,1487065.8155174,70,1487065.2072866,1487065.2715972,1487065.8209348,1487066.9026055,NaN,NaN
120,22,17,categorization,0,bathroom,SHINEd_sun_asfwthctfqerjvxr.tif,49,0.0666666666666667,0.0666666666666667,1.36666666666667,1487066.908608,1487067.5636926,74,1487066.9799129,1487067.0440038,1487067.5691712,1487068.934176,NaN,NaN
120,23,17,categorization,0,kitchen,SHINEd_sun_amjjdeyrggfqgmom.tif,99,0.0666666666666667,0.0666666666666667,1.85,1487068.9407384,1487069.6364844,70,1487069.011789,1487069.0761185,1487069.6429167,1487071.4912552,NaN,NaN
120,24,17,categorization,0,kitchen,SHINEd_sun_awcpdzzznmweyyhv.tif,105,0.0666666666666667,0.0666666666666667,1.1,1487071.4980193,1487072.3170715,70,1487071.5690803,1487071.6336591,1487072.3226083,1487073.4209454,NaN,NaN
120,25,17,categorization,0,kitchen,SHINEd_sun_aaxxjlsuzvqlgylf.tif,68,0.0666666666666667,0.0666666666666667,1.71666666666667,1487073.4270845,1487074.4726257,70,1487073.4994737,1487073.5624868,1487074.4788463,1487076.1938513,NaN,NaN
120,26,17,categorization,0,bathroom,SHINEd_sun_apynckhmoftszqoq.tif,47,0.0666666666666667,0.0666666666666667,1.6,1487076.2002232,1487076.8841815,74,1487076.271218,1487076.3356687,1487076.8899455,1487078.4882818,NaN,NaN
120,27,17,categorization,0,kitchen,SHINEd_sun_axyyrmzcupyhlivc.tif,106,0.0666666666666667,0.0666666666666667,0.85,1487078.494302,1487079.1877342,70,1487078.5655521,1487078.629693,1487079.1935799,1487080.0419178,NaN,NaN
120,28,17,categorization,0,kitchen,SHINEd_sun_agubuxuukhzyzpdp.tif,88,0.0666666666666667,0.0666666666666667,1.35,1487080.0478282,1487081.0187214,70,1487080.1200538,1487080.1830702,1487081.0245435,1487082.372881,NaN,NaN
120,29,17,categorization,0,bathroom,SHINEd_sun_akiytfaagpdsphgz.tif,31,0.0666666666666667,0.0666666666666667,1.65,1487082.3806288,1487083.181607,74,1487082.4530677,1487082.5157905,1487083.1879682,1487084.8363061,NaN,NaN
120,30,17,categorization,0,kitchen,SHINEd_sun_aexklacwqwezaorf.tif,84,0.0666666666666667,0.0666666666666667,1.35,1487084.8439178,1487085.5898277,70,1487084.9153234,1487084.9790167,1487085.5958281,1487086.9441767,NaN,NaN
120,31,17,categorization,0,bathroom,SHINEd_sun_agguqiubmwhqqunb.tif,22,0.0666666666666667,0.0666666666666667,1.63333333333333,1487086.9506205,1487087.6943853,70,1487087.0220287,1487087.0858964,1487087.6996058,1487089.3312776,NaN,NaN
120,32,17,categorization,0,kitchen,SHINEd_sun_ahywdevtimnqcsln.tif,94,0.0666666666666667,0.0666666666666667,1.1,1487089.3376339,1487090.0945357,70,1487089.4090454,1487089.4730594,1487090.0997661,1487091.1981039,NaN,NaN
120,33,17,categorization,0,kitchen,SHINEd_sun_ahljzhgcdpomplvg.tif,91,0.0666666666666667,0.0666666666666667,1.11666666666667,1487091.2048445,1487091.8544414,70,1487091.2759686,1487091.34027,1487091.860298,1487092.9753019,NaN,NaN
120,34,17,categorization,0,bathroom,SHINEd_sun_apeeialkgkuxddgh.tif,42,0.0666666666666667,0.0666666666666667,1.5,1487092.9813949,1487093.6380395,74,1487093.0518618,1487093.1166467,1487093.6440548,1487095.1423934,NaN,NaN
120,35,17,categorization,0,kitchen,SHINEd_sun_azmutvzbxypaceni.tif,110,0.0666666666666667,0.0666666666666667,1.28333333333333,1487095.1490422,1487095.9243705,70,1487095.2205144,1487095.2844232,1487095.9303252,1487097.2119967,NaN,NaN
120,36,17,categorization,0,bathroom,SHINEd_sun_axxbkopsgyouuebh.tif,58,0.0666666666666667,0.0666666666666667,1.7,1487097.2177922,1487097.862508,74,1487097.2883759,1487097.3529187,1487097.8683225,1487099.5666596,NaN,NaN
120,37,17,categorization,0,kitchen,SHINEd_sun_ahdycvpopffkzzsu.tif,90,0.0666666666666667,0.0666666666666667,1.08333333333333,1487099.5733809,1487100.2193977,70,1487099.6444491,1487099.7089838,1487100.224911,1487101.3065813,NaN,NaN
120,38,17,categorization,0,bathroom,SHINEd_sun_acduarbnmmoglmiv.tif,16,0.0666666666666667,0.0666666666666667,1.65,1487101.3127134,1487102.0047857,74,1487101.3848955,1487101.4479237,1487102.0104515,1487103.6587906,NaN,NaN
120,39,17,categorization,0,bathroom,SHINEd_sun_auzqhkafidnkrwmo.tif,54,0.0666666666666667,0.0666666666666667,1.31666666666667,1487103.6654273,1487104.3508041,74,1487103.7375151,1487103.8019717,1487104.3563194,1487105.6713241,NaN,NaN
120,40,17,categorization,0,kitchen,SHINEd_sun_aegoxogugdkwpmpj.tif,80,0.0666666666666667,0.0666666666666667,0.95,1487105.6776462,1487106.4133657,70,1487105.7490488,1487105.8130448,1487106.4194554,1487107.3677925,NaN,NaN
120,41,17,categorization,0,kitchen,SHINEd_labelme_kxvouciolcpqplr.tif,62,0.0666666666666667,0.0666666666666667,1.43333333333333,1487107.3742811,1487108.1120007,70,1487107.4454838,1487107.5097678,1487108.1172835,1487109.5489549,NaN,NaN
120,42,17,categorization,0,kitchen,SHINEd_sun_aymvwlarqodbwuoc.tif,107,0.0666666666666667,0.0666666666666667,1.66666666666667,1487109.555294,1487110.2797103,70,1487109.6264116,1487109.6909463,1487110.2858776,1487111.9508817,NaN,NaN
120,43,17,categorization,0,bathroom,SHINEd_sun_ambriybtogmepttm.tif,36,0.0666666666666667,0.0666666666666667,0.933333333333333,1487111.9567796,1487112.8044516,74,1487112.0280502,1487112.0934144,1487112.8095734,1487113.7412452,NaN,NaN
120,44,17,categorization,0,bathroom,SHINEd_labelme_sfxiulhjbhlyiyt.tif,11,0.0666666666666667,0.0666666666666667,0.833333333333333,1487113.7474576,1487114.5454039,74,1487113.818422,1487113.8835636,1487114.5506051,1487115.3822754,NaN,NaN
120,45,17,categorization,0,kitchen,SHINEd_sun_abdxkyyxwfskuaqb.tif,70,0.0666666666666667,0.0666666666666667,1.26666666666667,1487115.3885813,1487116.2311857,70,1487115.4601207,1487115.5237176,1487116.2369766,1487117.5019807,NaN,NaN
120,46,17,categorization,0,kitchen,SHINEd_sun_agorklincwxrdtga.tif,87,0.0666666666666667,0.0666666666666667,1.93333333333333,1487117.5081374,1487118.2008661,70,1487117.5793435,1487117.6435109,1487118.2070495,1487120.1387203,NaN,NaN
120,47,17,categorization,0,kitchen,SHINEd_sun_acxkpeoqbwcxfvip.tif,77,0.0666666666666667,0.0666666666666667,1.06666666666667,1487120.1448596,1487120.8558653,70,1487120.215655,1487120.280512,1487120.8611973,1487121.9262022,NaN,NaN
120,48,17,categorization,0,kitchen,SHINEd_sun_aenotlpyftoioydp.tif,82,0.0666666666666667,0.0666666666666667,0.766666666666667,1487121.9320039,1487122.7058005,70,1487122.0026989,1487122.0671762,1487122.7112071,1487123.4762118,NaN,NaN
120,49,17,categorization,0,bathroom,SHINEd_sun_aunuadmjocsddsrl.tif,52,0.0666666666666667,0.0666666666666667,0.833333333333333,1487123.4823486,1487124.2444034,70,1487123.5534722,1487123.6178703,1487124.2506068,1487125.0822786,NaN,NaN
120,50,17,categorization,0,bathroom,SHINEd_sun_apkxzenqapsujocq.tif,45,0.0666666666666667,0.0666666666666667,1.46666666666667,1487125.0883643,1487125.6921247,74,1487125.1596677,1487125.2239361,1487125.6982717,1487127.1632763,NaN,NaN
