sub_num,trial,block,task,is_practice,category,image,texture,duration,mask_dur,jitter,stim_time,time_of_resp,trial_response,mask_time,fix_time,jit_onset,trial_end,trial_accuracy,RT
120,1,12,categorization,0,bathroom,SHINEd_sun_aqrpegblszgcoujh.tif,48,0.0666666666666667,0.0666666666666667,1.01666666666667,1486485.4028247,1486486.4374229,74,1486485.4735066,1486485.5381602,1486486.4428059,1486487.4578095,NaN,NaN
120,2,12,categorization,0,kitchen,SHINEd_sun_ayqymgxqhxxiykiw.tif,109,0.0666666666666667,0.0666666666666667,0.766666666666667,1486487.4653753,1486488.5118464,70,1486487.536086,1486487.6006186,1486488.5171647,1486489.282168,NaN,NaN
120,3,12,categorization,0,bathroom,SHINEd_sun_agguqiubmwhqqunb.tif,22,0.0666666666666667,0.0666666666666667,0.716666666666667,1486489.2883511,1486490.1179445,74,1486489.359009,1486489.4234834,1486490.1242516,1486490.8392557,NaN,NaN
120,4,12,categorization,0,bathroom,SHINEd_sun_acduarbnmmoglmiv.tif,16,0.0666666666666667,0.0666666666666667,0.816666666666667,1486490.8446379,1486491.5700831,74,1486490.915769,1486490.9796729,1486491.5759347,1486492.3909379,NaN,NaN
120,5,12,categorization,0,bathroom,SHINEd_sun_apeeialkgkuxddgh.tif,42,0.0666666666666667,0.0666666666666667,1.96666666666667,1486492.3967076,1486493.0845848,74,1486492.4673058,1486492.5318103,1486493.0908874,1486495.0558913,NaN,NaN
120,6,12,categorization,0,bathroom,SHINEd_sun_aspsyogrekjtfozg.tif,50,0.0666666666666667,0.0666666666666667,0.85,1486495.0622373,1486495.723379,74,1486495.1337902,1486495.1973685,1486495.7288363,1486496.5771741,NaN,NaN
120,7,12,categorization,0,kitchen,SHINEd_sun_agzzivivdpnawacl.tif,89,0.0666666666666667,0.0666666666666667,0.7,1486496.5825545,1486497.3922411,70,1486496.6537091,1486496.7182254,1486497.3983003,1486498.0966383,NaN,NaN
120,8,12,categorization,0,bathroom,SHINEd_sun_alkosphxlxwjwgjd.tif,34,0.0666666666666667,0.0666666666666667,1.23333333333333,1486498.1027865,1486498.8269745,74,1486498.1736309,1486498.2380415,1486498.8319741,1486500.0636444,NaN,NaN
120,9,12,categorization,0,kitchen,SHINEd_sun_aamedkxepzlwuxes.tif,65,0.0666666666666667,0.0666666666666667,1.13333333333333,1486500.069449,1486500.8448915,70,1486500.1400258,1486500.2048281,1486500.8509407,1486501.9826106,NaN,NaN
120,10,12,categorization,0,bathroom,SHINEd_sun_axldvoqbuvuggfmq.tif,57,0.0666666666666667,0.0666666666666667,0.95,1486501.9887706,1486502.7829867,74,1486502.0599511,1486502.124078,1486502.7879966,1486503.7363358,NaN,NaN
120,11,12,categorization,0,bathroom,SHINEd_sun_aleqenyvunhactkl.tif,32,0.0666666666666667,0.0666666666666667,1.83333333333333,1486503.7426169,1486504.4003675,74,1486503.8136784,1486503.878366,1486504.4058566,1486506.2375288,NaN,NaN
120,12,12,categorization,0,bathroom,SHINEd_sun_apkxzenqapsujocq.tif,45,0.0666666666666667,0.0666666666666667,1.41666666666667,1486506.24493,1486506.9474303,74,1486506.3160986,1486506.3802034,1486506.9532838,1486508.3682885,NaN,NaN
120,13,12,categorization,0,bathroom,SHINEd_sun_abapwbhyhkfixyex.tif,14,0.0666666666666667,0.0666666666666667,1.06666666666667,1486508.3749114,1486509.3116032,74,1486508.4463163,1486508.5114957,1486509.3171542,1486510.382159,NaN,NaN
120,14,12,categorization,0,kitchen,SHINEd_sun_agubuxuukhzyzpdp.tif,88,0.0666666666666667,0.0666666666666667,0.716666666666667,1486510.3884284,1486511.5806605,74,1486510.4596466,1486510.5233386,1486511.5860977,1486512.3011034,NaN,NaN
120,15,12,categorization,0,kitchen,SHINEd_sun_aenotlpyftoioydp.tif,82,0.0666666666666667,0.0666666666666667,1.4,1486512.307573,1486513.049019,70,1486512.3784699,1486512.4431713,1486513.0545221,1486514.452861,NaN,NaN
120,16,12,categorization,0,bathroom,SHINEd_sun_abjtwfukuwddzted.tif,15,0.0666666666666667,0.0666666666666667,1.36666666666667,1486514.4593715,1486515.2239527,74,1486514.5306006,1486514.5947165,1486515.2294498,1486516.5944529,NaN,NaN
120,17,12,categorization,0,kitchen,SHINEd_sun_afuyedyxivkhecmu.tif,85,0.0666666666666667,0.0666666666666667,0.983333333333333,1486516.6005616,1486517.5322932,70,1486516.6717,1486516.7358683,1486517.5377275,1486518.519399,NaN,NaN
120,18,12,categorization,0,kitchen,SHINEd_sun_awcpdzzznmweyyhv.tif,105,0.0666666666666667,0.0666666666666667,1.93333333333333,1486518.5258019,1486519.2878483,70,1486518.5969443,1486518.6614684,1486519.293887,1486521.225569,NaN,NaN
120,19,12,categorization,0,kitchen,SHINEd_sun_aarfiyshqohlwkmo.tif,67,0.0666666666666667,0.0666666666666667,1.81666666666667,1486521.2318417,1486522.1977985,70,1486521.302381,1486521.3667707,1486522.2034231,1486524.0184287,NaN,NaN
120,20,12,categorization,0,bathroom,SHINEd_sun_asfwthctfqerjvxr.tif,49,0.0666666666666667,0.0666666666666667,1.15,1486524.0247525,1486524.6631491,74,1486524.0954869,1486524.1601254,1486524.6685957,1486525.8169337,NaN,NaN
120,21,12,categorization,0,kitchen,SHINEd_sun_ahspylgoovwmwvgk.tif,93,0.0666666666666667,0.0666666666666667,1.65,1486525.8224836,1486526.5662601,70,1486525.8932404,1486525.9580129,1486526.5726852,1486528.2210229,NaN,NaN
120,22,12,categorization,0,kitchen,SHINEd_sun_aqeaevwwwjoqhzvl.tif,100,0.0666666666666667,0.0666666666666667,1.66666666666667,1486528.227513,1486529.0944566,70,1486528.2989313,1486528.3628703,1486529.0998598,1486530.7648632,NaN,NaN
120,23,12,categorization,0,kitchen,SHINEd_sun_aegoxogugdkwpmpj.tif,80,0.0666666666666667,0.0666666666666667,1.01666666666667,1486530.7706823,1486531.5366398,70,1486530.8414044,1486530.9061808,1486531.5420299,1486532.5570341,NaN,NaN
120,24,12,categorization,0,bathroom,SHINEd_sun_agrwbmhcpmfuwmsg.tif,24,0.0666666666666667,0.0666666666666667,1.98333333333333,1486532.5631048,1486533.23126,74,1486532.6339846,1486532.698159,1486533.2369615,1486535.2186324,NaN,NaN
120,25,12,categorization,0,kitchen,SHINEd_sun_aunzlwrbjumxhwdj.tif,102,0.0666666666666667,0.0666666666666667,1.03333333333333,1486535.2245136,1486535.9321727,70,1486535.2954271,1486535.3610458,1486535.9372968,1486536.9689669,NaN,NaN
120,26,12,categorization,0,bathroom,SHINEd_sun_akiytfaagpdsphgz.tif,31,0.0666666666666667,0.0666666666666667,1.5,1486536.9754726,1486537.6911426,74,1486537.0462322,1486537.1109888,1486537.6964242,1486539.1947631,NaN,NaN
120,27,12,categorization,0,bathroom,SHINEd_sun_aunuadmjocsddsrl.tif,52,0.0666666666666667,0.0666666666666667,1.1,1486539.2008543,1486539.9510573,74,1486539.2717537,1486539.3362512,1486539.9565003,1486541.0548369,NaN,NaN
120,28,12,categorization,0,kitchen,SHINEd_sun_admlmbcdswaszruo.tif,79,0.0666666666666667,0.0666666666666667,0.783333333333333,1486541.0606796,1486541.7937152,70,1486541.1312038,1486541.1958725,1486541.7992447,1486542.5809159,NaN,NaN
120,29,12,categorization,0,bathroom,SHINEd_sun_acgyywnybuveqsro.tif,18,0.0666666666666667,0.0666666666666667,1.21666666666667,1486542.5869554,1486543.3841544,74,1486542.6576198,1486542.7224494,1486543.3898092,1486544.6048143,NaN,NaN
120,30,12,categorization,0,bathroom,SHINEd_sun_apynckhmoftszqoq.tif,47,0.0666666666666667,0.0666666666666667,1.41666666666667,1486544.6115677,1486545.2532717,74,1486544.6826947,1486544.7483179,1486545.2591783,1486546.6741914,NaN,NaN
120,31,12,categorization,0,bathroom,SHINEd_sun_apkruvsevgegsdwp.tif,44,0.0666666666666667,0.0666666666666667,1.28333333333333,1486546.68054,1486547.3820728,74,1486546.7512044,1486546.8157476,1486547.3880318,1486548.669703,NaN,NaN
120,32,12,categorization,0,kitchen,SHINEd_sun_ahpczsiumwwocjkv.tif,92,0.0666666666666667,0.0666666666666667,0.95,1486548.6764401,1486549.4328291,70,1486548.7476068,1486548.8129966,1486549.4386953,1486550.3870333,NaN,NaN
120,33,12,categorization,0,kitchen,SHINEd_sun_aypmqwcualkenuoe.tif,108,0.0666666666666667,0.0666666666666667,1.73333333333333,1486550.3931706,1486551.3670523,70,1486550.4643977,1486550.5291185,1486551.3733551,1486553.1050263,NaN,NaN
120,34,12,categorization,0,kitchen,SHINEd_sun_avszsnwsbuqfgzbn.tif,104,0.0666666666666667,0.0666666666666667,1.56666666666667,1486553.111288,1486553.8337775,70,1486553.1822472,1486553.2476452,1486553.8388416,1486555.4038617,NaN,NaN
120,35,12,categorization,0,kitchen,SHINEd_sun_azmutvzbxypaceni.tif,110,0.0666666666666667,0.0666666666666667,1.05,1486555.4118921,1486556.2703504,70,1486555.4843458,1486555.5475826,1486556.2761523,1486557.3244905,NaN,NaN
120,36,12,categorization,0,bathroom,SHINEd_sun_auzqhkafidnkrwmo.tif,54,0.0666666666666667,0.0666666666666667,0.916666666666667,1486557.3304377,1486557.9846181,74,1486557.401369,1486557.4671776,1486557.9898736,1486558.9048776,NaN,NaN
120,37,12,categorization,0,kitchen,SHINEd_sun_acxkpeoqbwcxfvip.tif,77,0.0666666666666667,0.0666666666666667,1.61666666666667,1486558.9109252,1486559.6390987,70,1486558.9818408,1486559.0466878,1486559.6450831,1486561.2600867,NaN,NaN
120,38,12,categorization,0,bathroom,SHINEd_sun_anryaplzeujmzfkd.tif,39,0.0666666666666667,0.0666666666666667,0.916666666666667,1486561.2659691,1486561.9751524,74,1486561.3367579,1486561.4009982,1486561.9803989,1486562.8954036,NaN,NaN
120,39,12,categorization,0,bathroom,SHINEd_sun_ahaulkltgpkeeemi.tif,26,0.0666666666666667,0.0666666666666667,0.916666666666667,1486562.9020309,1486564.1005465,74,1486562.9730472,1486563.0369648,1486564.1058568,1486565.0208616,NaN,NaN
120,40,12,categorization,0,bathroom,SHINEd_sun_azqyogdvyhahyram.tif,60,0.0666666666666667,0.0666666666666667,0.916666666666667,1486565.0267975,1486565.7917839,74,1486565.0981664,1486565.1621984,1486565.7972017,1486566.712208,NaN,NaN
120,41,12,categorization,0,kitchen,SHINEd_sun_auaiucuqpdausiva.tif,101,0.0666666666666667,0.0666666666666667,1.28333333333333,1486566.7182882,1486567.5714455,70,1486566.7894814,1486566.8534995,1486567.5776436,1486568.8593141,NaN,NaN
120,42,12,categorization,0,kitchen,SHINEd_sun_aehawpgmrlhlvcow.tif,81,0.0666666666666667,0.0666666666666667,0.916666666666667,1486568.8654603,1486569.5570307,70,1486568.9362983,1486569.0022866,1486569.5625718,1486570.4775797,NaN,NaN
120,43,12,categorization,0,bathroom,SHINEd_sun_avhrdrntsqrjzccq.tif,55,0.0666666666666667,0.0666666666666667,1.68333333333333,1486570.4838821,1486571.2258931,74,1486570.5550117,1486570.6195636,1486571.2311442,1486572.9128156,NaN,NaN
120,44,12,categorization,0,kitchen,SHINEd_sun_aeqdocilnnpuvuhx.tif,83,0.0666666666666667,0.0666666666666667,0.933333333333333,1486572.9204172,1486573.620278,70,1486572.9918012,1486573.0571814,1486573.6259759,1486574.557648,NaN,NaN
120,45,12,categorization,0,kitchen,SHINEd_sun_adgqasybjyktddhj.tif,78,0.0666666666666667,0.0666666666666667,1.86666666666667,1486574.5639285,1486575.3719129,70,1486574.634759,1486574.6994599,1486575.3778151,1486577.2428187,NaN,NaN
120,46,12,categorization,0,kitchen,SHINEd_sun_aymvwlarqodbwuoc.tif,107,0.0666666666666667,0.0666666666666667,1.03333333333333,1486577.2492701,1486578.1694463,74,1486577.3201814,1486577.3844513,1486578.1748023,1486579.2064796,NaN,NaN
120,47,12,categorization,0,bathroom,SHINEd_sun_ahcvzmoyaycdoftf.tif,27,0.0666666666666667,0.0666666666666667,1.43333333333333,1486579.2128207,1486580.0383608,74,1486579.2854889,1486579.3481047,1486580.0439664,1486581.4756443,NaN,NaN
120,48,12,categorization,0,bathroom,SHINEd_sun_amzlamotzwfkwjco.tif,37,0.0666666666666667,0.0666666666666667,0.833333333333333,1486581.4826906,1486582.9237461,74,1486581.5552487,1486581.6196845,1486582.9297828,1486583.7614655,NaN,NaN
120,49,12,categorization,0,kitchen,SHINEd_labelme_brsyyvweiuaazfr.tif,61,0.0666666666666667,0.0666666666666667,0.833333333333333,1486583.7679743,1486584.5555815,70,1486583.8389749,1486583.9031538,1486584.5610495,1486585.3927206,NaN,NaN
120,50,12,categorization,0,bathroom,SHINEd_sun_ahqjwnzgolcaoidx.tif,29,0.0666666666666667,0.0666666666666667,0.916666666666667,1486585.3990883,1486586.0998465,74,1486585.4697963,1486585.534632,1486586.1061804,1486587.021185,NaN,NaN
