sub_num,trial,block,task,is_practice,category,image,texture,duration,mask_dur,jitter,stim_time,time_of_resp,trial_response,mask_time,fix_time,jit_onset,trial_end,trial_accuracy,RT
120,1,16,categorization,0,kitchen,SHINEd_sun_akcjzhbbjlbogpdi.tif,98,0.0666666666666667,0.0666666666666667,1.56666666666667,1486923.8190171,1486924.6192485,70,1486923.8896594,1486923.9541995,1486924.6246092,1486926.1896149,NaN,NaN
120,2,16,categorization,0,kitchen,SHINEd_sun_aehawpgmrlhlvcow.tif,81,0.0666666666666667,0.0666666666666667,1.38333333333333,1486926.1957293,1486926.9838791,70,1486926.2666344,1486926.3307821,1486926.9890362,1486928.3707867,NaN,NaN
120,3,16,categorization,0,bathroom,SHINEd_sun_aspsyogrekjtfozg.tif,50,0.0666666666666667,0.0666666666666667,1.95,1486928.3771989,1486929.0205028,74,1486928.4482074,1486928.5126078,1486929.0266132,1486930.974951,NaN,NaN
120,4,16,categorization,0,bathroom,SHINEd_sun_aleqenyvunhactkl.tif,32,0.0666666666666667,0.0666666666666667,0.833333333333333,1486930.9813611,1486931.7149471,74,1486931.0527447,1486931.1168238,1486931.7202484,1486932.5519192,NaN,NaN
120,5,16,categorization,0,kitchen,SHINEd_sun_aapllqyqlykszopd.tif,66,0.0666666666666667,0.0666666666666667,1.06666666666667,1486932.5585796,1486933.4184381,70,1486932.6295107,1486932.6935442,1486933.4237661,1486934.4888419,NaN,NaN
120,6,16,categorization,0,kitchen,SHINEd_sun_aadbddgrdsjugojn.tif,64,0.0666666666666667,0.0666666666666667,1.15,1486934.4949348,1486935.2256579,70,1486934.5657365,1486934.6303024,1486935.2310455,1486936.3793821,NaN,NaN
120,7,16,categorization,0,kitchen,SHINEd_sun_aunzlwrbjumxhwdj.tif,102,0.0666666666666667,0.0666666666666667,0.866666666666667,1486936.3871728,1486937.0454962,70,1486936.4596335,1486936.522323,1486937.0508545,1486937.9158587,NaN,NaN
120,8,16,categorization,0,bathroom,SHINEd_sun_anhioqovhscjqqwb.tif,38,0.0666666666666667,0.0666666666666667,1.03333333333333,1486937.922044,1486938.6134061,74,1486937.9932346,1486938.0588579,1486938.6193872,1486939.6510579,NaN,NaN
120,9,16,categorization,0,bathroom,SHINEd_sun_ausgutylgojavyoq.tif,53,0.0666666666666667,0.0666666666666667,1.85,1486939.6586299,1486940.2828512,74,1486939.729998,1486939.7937309,1486940.2884372,1486942.1367736,NaN,NaN
120,10,16,categorization,0,kitchen,SHINEd_labelme_brsyyvweiuaazfr.tif,61,0.0666666666666667,0.0666666666666667,1.25,1486942.1427876,1486942.8308043,70,1486942.2139596,1486942.2795013,1486942.8364837,1486944.0848221,NaN,NaN
120,11,16,categorization,0,kitchen,SHINEd_sun_ajcbwwvdlsvjyzje.tif,95,0.0666666666666667,0.0666666666666667,1.55,1486944.0909976,1486944.7840314,70,1486944.1620517,1486944.2263735,1486944.7900222,1486946.3383605,NaN,NaN
120,12,16,categorization,0,kitchen,SHINEd_sun_aenotlpyftoioydp.tif,82,0.0666666666666667,0.0666666666666667,0.933333333333333,1486946.3447343,1486947.0030058,70,1486946.4163073,1486946.4801802,1486947.0090923,1486947.9407625,NaN,NaN
120,13,16,categorization,0,kitchen,SHINEd_sun_aarfiyshqohlwkmo.tif,67,0.0666666666666667,0.0666666666666667,1.3,1486947.9486581,1486948.6649647,70,1486948.0201411,1486948.0850254,1486948.6703025,1486949.9686505,NaN,NaN
120,14,16,categorization,0,bathroom,SHINEd_labelme_sfxiulhjbhlyiyt.tif,11,0.0666666666666667,0.0666666666666667,0.883333333333333,1486949.974877,1486950.6114461,74,1486950.0469477,1486950.1106725,1486950.6166574,1486951.4983278,NaN,NaN
120,15,16,categorization,0,bathroom,SHINEd_sun_alkosphxlxwjwgjd.tif,34,0.0666666666666667,0.0666666666666667,0.866666666666667,1486951.5046009,1486952.2064236,74,1486951.576024,1486951.6403163,1486952.2125335,1486953.077545,NaN,NaN
120,16,16,categorization,0,kitchen,SHINEd_sun_aexklacwqwezaorf.tif,84,0.0666666666666667,0.0666666666666667,1.91666666666667,1486953.0839976,1486953.9482268,70,1486953.1552511,1486953.2194182,1486953.9534657,1486955.8684695,NaN,NaN
120,17,16,categorization,0,bathroom,SHINEd_sun_acduarbnmmoglmiv.tif,16,0.0666666666666667,0.0666666666666667,0.95,1486955.8747086,1486956.5847642,74,1486955.9454474,1486956.0099638,1486956.5899496,1486957.5382873,NaN,NaN
120,18,16,categorization,0,bathroom,SHINEd_sun_apynckhmoftszqoq.tif,47,0.0666666666666667,0.0666666666666667,0.883333333333333,1486957.5444178,1486958.2327506,74,1486957.615185,1486957.6798128,1486958.2380693,1486959.1197409,NaN,NaN
120,19,16,categorization,0,bathroom,SHINEd_sun_amzlamotzwfkwjco.tif,37,0.0666666666666667,0.0666666666666667,0.933333333333333,1486959.1255367,1486959.9950254,74,1486959.1964667,1486959.2622285,1486960.0011482,1486960.9328196,NaN,NaN
120,20,16,categorization,0,bathroom,SHINEd_sun_apjevzvycyhuqghb.tif,43,0.0666666666666667,0.0666666666666667,0.716666666666667,1486960.9386904,1486961.9314301,74,1486961.0095948,1486961.0742306,1486961.9369855,1486962.6519887,NaN,NaN
120,21,16,categorization,0,bathroom,SHINEd_sun_axyrejkiiaqiurjk.tif,59,0.0666666666666667,0.0666666666666667,1.23333333333333,1486962.6577348,1486963.4940303,74,1486962.7283522,1486962.7929747,1486963.4992948,1486964.7309649,NaN,NaN
120,22,16,categorization,0,kitchen,SHINEd_sun_avszsnwsbuqfgzbn.tif,104,0.0666666666666667,0.0666666666666667,0.833333333333333,1486964.7369884,1486965.438921,70,1486964.8081986,1486964.8721574,1486965.4449971,1486966.2766686,NaN,NaN
120,23,16,categorization,0,bathroom,SHINEd_sun_axldvoqbuvuggfmq.tif,57,0.0666666666666667,0.0666666666666667,1.05,1486966.2825249,1486966.9626614,74,1486966.3530791,1486966.4179225,1486966.9688908,1486968.0172279,NaN,NaN
120,24,16,categorization,0,bathroom,SHINEd_sun_aoybiabnpadelefl.tif,41,0.0666666666666667,0.0666666666666667,1.46666666666667,1486968.0234857,1486968.7380854,74,1486968.0950883,1486968.1586815,1486968.7441255,1486970.2091311,NaN,NaN
120,25,16,categorization,0,kitchen,SHINEd_sun_abpwyqmlzafvklqo.tif,72,0.0666666666666667,0.0666666666666667,1.68333333333333,1486970.2165121,1486970.9573934,70,1486970.287327,1486970.3519818,1486970.9628989,1486972.644569,NaN,NaN
120,26,16,categorization,0,kitchen,SHINEd_sun_ahljzhgcdpomplvg.tif,91,0.0666666666666667,0.0666666666666667,0.883333333333333,1486972.6515086,1486973.3403487,70,1486972.7237233,1486972.7879829,1486973.3462188,1486974.2278901,NaN,NaN
120,27,16,categorization,0,kitchen,SHINEd_sun_abdenxonkemggwsq.tif,69,0.0666666666666667,0.0666666666666667,1.16666666666667,1486974.2340401,1486974.9420951,70,1486974.3061871,1486974.3690504,1486974.9483208,1486976.1133257,NaN,NaN
120,28,16,categorization,0,kitchen,SHINEd_sun_aypmqwcualkenuoe.tif,108,0.0666666666666667,0.0666666666666667,0.766666666666667,1486976.119984,1486976.8714797,70,1486976.1923467,1486976.2553587,1486976.8770086,1486977.6420129,NaN,NaN
120,29,16,categorization,0,kitchen,SHINEd_sun_acxkpeoqbwcxfvip.tif,77,0.0666666666666667,0.0666666666666667,0.8,1486977.6484438,1486978.3873038,70,1486977.7194221,1486977.7838664,1486978.3926999,1486979.1910367,NaN,NaN
120,30,16,categorization,0,bathroom,SHINEd_sun_afcoljnjfoxjtgja.tif,20,0.0666666666666667,0.0666666666666667,1.03333333333333,1486979.1970073,1486980.0280874,74,1486979.2682054,1486979.3324839,1486980.0328572,1486981.0645283,NaN,NaN
120,31,16,categorization,0,bathroom,SHINEd_sun_ambriybtogmepttm.tif,36,0.0666666666666667,0.0666666666666667,1.35,1486981.07088,1486981.7836259,74,1486981.1415817,1486981.2058783,1486981.7886658,1486983.1370024,NaN,NaN
120,32,16,categorization,0,kitchen,SHINEd_labelme_rykdqxenmhulbdn.tif,63,0.0666666666666667,0.0666666666666667,0.95,1486983.1429522,1486983.9510211,70,1486983.2139413,1486983.2783164,1486983.9573748,1486984.9057112,NaN,NaN
120,33,16,categorization,0,bathroom,SHINEd_sun_alotolagknyrgtsk.tif,35,0.0666666666666667,0.0666666666666667,0.766666666666667,1486984.9116426,1486985.8113895,74,1486984.9825163,1486985.0479244,1486985.8173253,1486986.5823304,NaN,NaN
120,34,16,categorization,0,bathroom,SHINEd_sun_agrwbmhcpmfuwmsg.tif,24,0.0666666666666667,0.0666666666666667,1.08333333333333,1486986.5887692,1486987.3042641,74,1486986.6614823,1486986.7239988,1486987.3096162,1486988.3912862,NaN,NaN
120,35,16,categorization,0,kitchen,SHINEd_sun_akchetnepxlcxhsu.tif,97,0.0666666666666667,0.0666666666666667,1.16666666666667,1486988.3973642,1486989.3281318,74,1486988.4683826,1486988.5328494,1486989.3339495,1486990.4989686,NaN,NaN
120,36,16,categorization,0,bathroom,SHINEd_sun_axxbkopsgyouuebh.tif,58,0.0666666666666667,0.0666666666666667,1.71666666666667,1486990.5054291,1486991.2068515,74,1486990.5768376,1486990.6408969,1486991.2121216,1486992.9271257,NaN,NaN
120,37,16,categorization,0,kitchen,SHINEd_sun_adgqasybjyktddhj.tif,78,0.0666666666666667,0.0666666666666667,0.966666666666667,1486992.9332001,1486993.5887772,70,1486993.0042177,1486993.0684454,1486993.5941629,1486994.5591678,NaN,NaN
120,38,16,categorization,0,kitchen,SHINEd_sun_agorklincwxrdtga.tif,87,0.0666666666666667,0.0666666666666667,0.966666666666667,1486994.5658284,1486995.3002238,70,1486994.6367386,1486994.7012732,1486995.3056131,1486996.2706168,NaN,NaN
120,39,16,categorization,0,bathroom,SHINEd_sun_acgyywnybuveqsro.tif,18,0.0666666666666667,0.0666666666666667,0.75,1486996.2769004,1486996.9333912,74,1486996.3484542,1486996.4123601,1486996.9393883,1486997.6877269,NaN,NaN
120,40,16,categorization,0,bathroom,SHINEd_sun_asfwthctfqerjvxr.tif,49,0.0666666666666667,0.0666666666666667,1.05,1486997.6939757,1486998.3996373,74,1486997.7648656,1486997.8294781,1486998.4050852,1486999.453422,NaN,NaN
120,41,16,categorization,0,kitchen,SHINEd_sun_ahdycvpopffkzzsu.tif,90,0.0666666666666667,0.0666666666666667,0.85,1486999.4594151,1487000.2930092,70,1486999.5302475,1486999.5951515,1487000.298002,1487001.1463394,NaN,NaN
120,42,16,categorization,0,kitchen,SHINEd_sun_abftihopvusyfakt.tif,71,0.0666666666666667,0.0666666666666667,1.25,1487001.1524002,1487001.8929561,70,1487001.2245595,1487001.2880797,1487001.8989444,1487003.1472822,NaN,NaN
120,43,16,categorization,0,kitchen,SHINEd_sun_ahspylgoovwmwvgk.tif,93,0.0666666666666667,0.0666666666666667,1.1,1487003.1538328,1487003.8097406,70,1487003.2262306,1487003.2891592,1487003.8153077,1487004.9136456,NaN,NaN
120,44,16,categorization,0,bathroom,SHINEd_sun_apkxzenqapsujocq.tif,45,0.0666666666666667,0.0666666666666667,0.866666666666667,1487004.9203441,1487005.520063,74,1487004.9928751,1487005.0568902,1487005.5260449,1487006.3910494,NaN,NaN
120,45,16,categorization,0,bathroom,SHINEd_sun_apkruvsevgegsdwp.tif,44,0.0666666666666667,0.0666666666666667,0.716666666666667,1487006.3971803,1487007.1209379,74,1487006.467639,1487006.5322381,1487007.126439,1487007.8414424,NaN,NaN
120,46,16,categorization,0,kitchen,SHINEd_sun_agzzivivdpnawacl.tif,89,0.0666666666666667,0.0666666666666667,1.98333333333333,1487007.8473411,1487008.5472481,70,1487007.918036,1487007.9826099,1487008.5527052,1487010.5343767,NaN,NaN
120,47,16,categorization,0,bathroom,SHINEd_sun_aggnnqpdorgxpvce.tif,21,0.0666666666666667,0.0666666666666667,1.93333333333333,1487010.540749,1487011.2895373,74,1487010.611831,1487010.6757173,1487011.2953637,1487013.2270332,NaN,NaN
120,48,16,categorization,0,bathroom,SHINEd_sun_ahijqszoswveeyji.tif,28,0.0666666666666667,0.0666666666666667,0.8,1487013.2336435,1487013.8934943,74,1487013.3048431,1487013.3691151,1487013.8995715,1487014.6979087,NaN,NaN
120,49,16,categorization,0,bathroom,SHINEd_sun_apeeialkgkuxddgh.tif,42,0.0666666666666667,0.0666666666666667,1.71666666666667,1487014.7041721,1487015.3911943,74,1487014.7750118,1487014.8396939,1487015.3967768,1487017.1117802,NaN,NaN
120,50,16,categorization,0,kitchen,SHINEd_sun_axyyrmzcupyhlivc.tif,106,0.0666666666666667,0.0666666666666667,1.96666666666667,1487017.1179648,1487017.8646454,70,1487017.1893718,1487017.2531616,1487017.8705638,1487019.8355667,NaN,NaN
