sub_num,trial,block,task,is_practice,category,image,texture,duration,mask_dur,jitter,stim_time,time_of_resp,trial_response,mask_time,fix_time,jit_onset,trial_end,trial_accuracy,RT
120,1,24,categorization,0,bathroom,SHINEd_sun_aggnnqpdorgxpvce.tif,21,0.0666666666666667,0.0666666666666667,0.733333333333333,1487771.2144341,1487771.8938782,74,1487771.2854173,1487771.3497791,1487771.8993208,1487772.6309919,NaN,NaN
120,2,24,categorization,0,kitchen,SHINEd_sun_amjjdeyrggfqgmom.tif,99,0.0666666666666667,0.0666666666666667,1.26666666666667,1487772.6367309,1487773.2180796,70,1487772.707404,1487772.7719744,1487773.2235204,1487774.4885352,NaN,NaN
120,3,24,categorization,0,kitchen,SHINEd_labelme_rykdqxenmhulbdn.tif,63,0.0666666666666667,0.0666666666666667,0.75,1487774.4950027,1487775.1340915,70,1487774.566181,1487774.6312682,1487775.1401942,1487775.8885319,NaN,NaN
120,4,24,categorization,0,kitchen,SHINEd_sun_abrcnpqqhmjwekyf.tif,73,0.0666666666666667,0.0666666666666667,1.08333333333333,1487775.8943467,1487776.6296868,70,1487775.965229,1487776.0311705,1487776.635776,1487777.7174463,NaN,NaN
120,5,24,categorization,0,kitchen,SHINEd_sun_acfmftudsenhrfhy.tif,74,0.0666666666666667,0.0666666666666667,1.28333333333333,1487777.7238287,1487778.3500807,70,1487777.795515,1487777.8590226,1487778.3553304,1487779.6370003,NaN,NaN
120,6,24,categorization,0,kitchen,SHINEd_sun_axyyrmzcupyhlivc.tif,106,0.0666666666666667,0.0666666666666667,0.9,1487779.6432893,1487780.2173195,74,1487779.713979,1487779.778844,1487780.2225418,1487781.1208793,NaN,NaN
120,7,24,categorization,0,kitchen,SHINEd_sun_avszsnwsbuqfgzbn.tif,104,0.0666666666666667,0.0666666666666667,1.8,1487781.1266315,1487781.7944542,70,1487781.1973135,1487781.2633547,1487781.8003295,1487783.5986673,NaN,NaN
120,8,24,categorization,0,bathroom,SHINEd_sun_agrwbmhcpmfuwmsg.tif,24,0.0666666666666667,0.0666666666666667,1.06666666666667,1487783.6052771,1487784.2404872,74,1487783.6759705,1487783.740316,1487784.245838,1487785.3108422,NaN,NaN
120,9,24,categorization,0,bathroom,SHINEd_sun_anhioqovhscjqqwb.tif,38,0.0666666666666667,0.0666666666666667,0.783333333333333,1487785.3170597,1487785.8921787,74,1487785.3881487,1487785.4526137,1487785.8982779,1487786.6799493,NaN,NaN
120,10,24,categorization,0,bathroom,SHINEd_sun_aofnryafpsjimzsb.tif,40,0.0666666666666667,0.0666666666666667,0.966666666666667,1487786.6861195,1487787.3364171,74,1487786.7573932,1487786.8215655,1487787.3423442,1487788.3073479,NaN,NaN
120,11,24,categorization,0,bathroom,SHINEd_sun_axyrejkiiaqiurjk.tif,59,0.0666666666666667,0.0666666666666667,0.95,1487788.3128047,1487788.9795228,74,1487788.3835555,1487788.4482325,1487788.9855249,1487789.9338634,NaN,NaN
120,12,24,categorization,0,bathroom,SHINEd_sun_ajlawzvmubibwbpy.tif,30,0.0666666666666667,0.0666666666666667,0.966666666666667,1487789.9397394,1487790.5219603,74,1487790.0110325,1487790.0749562,1487790.5273281,1487791.4923317,NaN,NaN
120,13,24,categorization,0,kitchen,SHINEd_sun_ayqymgxqhxxiykiw.tif,109,0.0666666666666667,0.0666666666666667,1.31666666666667,1487791.5002733,1487792.2152516,70,1487791.571412,1487791.6358966,1487792.2211869,1487793.5361921,NaN,NaN
120,14,24,categorization,0,kitchen,SHINEd_sun_abdxkyyxwfskuaqb.tif,70,0.0666666666666667,0.0666666666666667,0.766666666666667,1487793.5428893,1487794.1046961,70,1487793.6142795,1487793.6780104,1487794.1106924,1487794.8756971,NaN,NaN
120,15,24,categorization,0,kitchen,SHINEd_sun_abpwyqmlzafvklqo.tif,72,0.0666666666666667,0.0666666666666667,1.61666666666667,1487794.8812378,1487795.6651889,70,1487794.9522301,1487795.0166563,1487795.6706851,1487797.2856906,NaN,NaN
120,16,24,categorization,0,kitchen,SHINEd_sun_ajkqhtgcbgpcwrwn.tif,96,0.0666666666666667,0.0666666666666667,1.93333333333333,1487797.2921378,1487797.9325178,70,1487797.3643545,1487797.4274713,1487797.9380606,1487799.8697303,NaN,NaN
120,17,24,categorization,0,kitchen,SHINEd_sun_aeqdocilnnpuvuhx.tif,83,0.0666666666666667,0.0666666666666667,0.733333333333333,1487799.8760188,1487800.5071001,70,1487799.9472352,1487800.0116319,1487800.5121014,1487801.243773,NaN,NaN
120,18,24,categorization,0,kitchen,SHINEd_sun_afuyedyxivkhecmu.tif,85,0.0666666666666667,0.0666666666666667,1.63333333333333,1487801.2497906,1487802.0150602,70,1487801.3211816,1487801.3848445,1487802.0207846,1487803.6524563,NaN,NaN
120,19,24,categorization,0,kitchen,SHINEd_sun_ahpczsiumwwocjkv.tif,92,0.0666666666666667,0.0666666666666667,1.51666666666667,1487803.6586156,1487804.4068004,70,1487803.7296014,1487803.7939636,1487804.4128648,1487805.9278703,NaN,NaN
120,20,24,categorization,0,kitchen,SHINEd_sun_adgqasybjyktddhj.tif,78,0.0666666666666667,0.0666666666666667,1.68333333333333,1487805.934387,1487806.586004,70,1487806.0053369,1487806.0698123,1487806.5922178,1487808.2738878,NaN,NaN
120,21,24,categorization,0,kitchen,SHINEd_sun_acxkpeoqbwcxfvip.tif,77,0.0666666666666667,0.0666666666666667,1.28333333333333,1487808.2806147,1487808.9394895,70,1487808.3519402,1487808.4160444,1487808.9454526,1487810.2271231,NaN,NaN
120,22,24,categorization,0,kitchen,SHINEd_sun_aadbddgrdsjugojn.tif,64,0.0666666666666667,0.0666666666666667,0.766666666666667,1487810.2332862,1487810.9147677,70,1487810.3056376,1487810.3689076,1487810.9207447,1487811.6857496,NaN,NaN
120,23,24,categorization,0,kitchen,SHINEd_sun_ahljzhgcdpomplvg.tif,91,0.0666666666666667,0.0666666666666667,1.1,1487811.6918862,1487812.531412,70,1487811.7629303,1487811.8268935,1487812.5366636,1487813.6350018,NaN,NaN
120,24,24,categorization,0,bathroom,SHINEd_sun_aunuadmjocsddsrl.tif,52,0.0666666666666667,0.0666666666666667,1.55,1487813.6413501,1487814.5611542,74,1487813.7121186,1487813.7765972,1487814.5664399,1487816.1147777,NaN,NaN
120,25,24,categorization,0,bathroom,SHINEd_sun_apkruvsevgegsdwp.tif,44,0.0666666666666667,0.0666666666666667,1.88333333333333,1487816.1226451,1487816.7465241,74,1487816.194055,1487816.2579924,1487816.7517349,1487818.6334053,NaN,NaN
120,26,24,categorization,0,bathroom,SHINEd_sun_ahijqszoswveeyji.tif,28,0.0666666666666667,0.0666666666666667,1.05,1487818.6395522,1487819.5264506,74,1487818.7115129,1487818.7745357,1487819.5331051,1487820.5814432,NaN,NaN
120,27,24,categorization,0,kitchen,SHINEd_sun_aqeaevwwwjoqhzvl.tif,100,0.0666666666666667,0.0666666666666667,0.933333333333333,1487820.5875205,1487821.2836342,70,1487820.6596943,1487820.7234127,1487821.2896158,1487822.2212877,NaN,NaN
120,28,24,categorization,0,bathroom,SHINEd_sun_awnqiikzaispgmwo.tif,56,0.0666666666666667,0.0666666666666667,1.4,1487822.2274334,1487822.9622377,74,1487822.2997824,1487822.3640193,1487822.9676213,1487824.3659596,NaN,NaN
120,29,24,categorization,0,kitchen,SHINEd_sun_acwjdupvyjsugpay.tif,76,0.0666666666666667,0.0666666666666667,1.85,1487824.3724994,1487825.0777961,70,1487824.4448605,1487824.5080173,1487825.083671,1487826.9320256,NaN,NaN
120,30,24,categorization,0,bathroom,SHINEd_sun_apeeialkgkuxddgh.tif,42,0.0666666666666667,0.0666666666666667,1.2,1487826.9384861,1487827.4717311,74,1487827.0098046,1487827.0739084,1487827.4779309,1487828.6762681,NaN,NaN
120,31,24,categorization,0,bathroom,SHINEd_sun_anryaplzeujmzfkd.tif,39,0.0666666666666667,0.0666666666666667,1.33333333333333,1487828.6820268,1487829.3874272,74,1487828.7524697,1487828.8180967,1487829.3937703,1487830.725442,NaN,NaN
120,32,24,categorization,0,kitchen,SHINEd_sun_auaiucuqpdausiva.tif,101,0.0666666666666667,0.0666666666666667,0.8,1487830.7311256,1487831.4925137,70,1487830.8022788,1487830.8676246,1487831.4980597,1487832.2964099,NaN,NaN
120,33,24,categorization,0,bathroom,SHINEd_sun_afcoljnjfoxjtgja.tif,20,0.0666666666666667,0.0666666666666667,0.7,1487832.3025514,1487832.9644167,74,1487832.3734393,1487832.4375453,1487832.9697487,1487833.6680873,NaN,NaN
120,34,24,categorization,0,bathroom,SHINEd_sun_aoybiabnpadelefl.tif,41,0.0666666666666667,0.0666666666666667,1.26666666666667,1487833.6741059,1487834.4691777,74,1487833.7446382,1487833.809391,1487834.4742309,1487835.7392351,NaN,NaN
120,35,24,categorization,0,kitchen,SHINEd_sun_awcpdzzznmweyyhv.tif,105,0.0666666666666667,0.0666666666666667,1.98333333333333,1487835.7454078,1487836.320209,70,1487835.8180838,1487835.8808901,1487836.3261328,1487838.3078031,NaN,NaN
120,36,24,categorization,0,kitchen,SHINEd_sun_ahdycvpopffkzzsu.tif,90,0.0666666666666667,0.0666666666666667,1.18333333333333,1487838.3139543,1487839.1200532,74,1487838.3848703,1487838.4496272,1487839.1253644,1487840.3070343,NaN,NaN
120,37,24,categorization,0,bathroom,SHINEd_sun_auzqhkafidnkrwmo.tif,54,0.0666666666666667,0.0666666666666667,0.916666666666667,1487840.3141918,1487841.0004268,74,1487840.3856214,1487840.4497777,1487841.0065102,1487841.9215138,NaN,NaN
120,38,24,categorization,0,bathroom,SHINEd_sun_atstyziqcmkahyxk.tif,51,0.0666666666666667,0.0666666666666667,1,1487841.9278166,1487842.5309466,74,1487841.9987443,1487842.0633093,1487842.5360212,1487843.5343592,NaN,NaN
120,39,24,categorization,0,bathroom,SHINEd_sun_ausgutylgojavyoq.tif,53,0.0666666666666667,0.0666666666666667,1.63333333333333,1487843.54064,1487844.2170876,74,1487843.6120591,1487843.6767614,1487844.223154,1487845.8548257,NaN,NaN
120,40,24,categorization,0,kitchen,SHINEd_sun_abftihopvusyfakt.tif,71,0.0666666666666667,0.0666666666666667,1.36666666666667,1487845.8623339,1487846.4953916,70,1487845.9348437,1487845.9976538,1487846.5018066,1487847.8668108,NaN,NaN
120,41,24,categorization,0,kitchen,SHINEd_sun_akcjzhbbjlbogpdi.tif,98,0.0666666666666667,0.0666666666666667,1.1,1487847.872435,1487848.486013,70,1487847.9436145,1487848.0075699,1487848.491316,1487849.5896552,NaN,NaN
120,42,24,categorization,0,bathroom,SHINEd_sun_aclfzgynxzxlbepz.tif,19,0.0666666666666667,0.0666666666666667,1.43333333333333,1487849.5956858,1487850.3380045,74,1487849.6679103,1487849.73188,1487850.3441252,1487851.7757981,NaN,NaN
120,43,24,categorization,0,kitchen,SHINEd_sun_agorklincwxrdtga.tif,87,0.0666666666666667,0.0666666666666667,0.883333333333333,1487851.7821541,1487852.4437018,70,1487851.8529009,1487851.9180284,1487852.4498502,1487853.3315222,NaN,NaN
120,44,24,categorization,0,kitchen,SHINEd_sun_aenotlpyftoioydp.tif,82,0.0666666666666667,0.0666666666666667,1.86666666666667,1487853.3374457,1487853.9793627,70,1487853.4081187,1487853.4726691,1487853.9847408,1487855.8497468,NaN,NaN
120,45,24,categorization,0,bathroom,SHINEd_sun_alkosphxlxwjwgjd.tif,34,0.0666666666666667,0.0666666666666667,0.966666666666667,1487855.8565514,1487856.5730654,70,1487855.9272469,1487855.99197,1487856.5784983,1487857.5435032,NaN,NaN
120,46,24,categorization,0,bathroom,SHINEd_sun_agyqfjcfkdcydepw.tif,25,0.0666666666666667,0.0666666666666667,1.86666666666667,1487857.5499144,1487858.2662627,74,1487857.6213536,1487857.6851003,1487858.2719499,1487860.1369537,NaN,NaN
120,47,24,categorization,0,kitchen,SHINEd_sun_ahywdevtimnqcsln.tif,94,0.0666666666666667,0.0666666666666667,1.33333333333333,1487860.1449258,1487860.8279496,70,1487860.2163581,1487860.2817409,1487860.8348129,1487862.1664974,NaN,NaN
120,48,24,categorization,0,bathroom,SHINEd_sun_ahaulkltgpkeeemi.tif,26,0.0666666666666667,0.0666666666666667,0.766666666666667,1487862.1726613,1487863.1277631,70,1487862.2440421,1487862.3078777,1487863.1330388,1487863.8980424,NaN,NaN
120,49,24,categorization,0,kitchen,SHINEd_sun_admlmbcdswaszruo.tif,79,0.0666666666666667,0.0666666666666667,1,1487863.9040632,1487864.5374787,70,1487863.9750178,1487864.0389601,1487864.5433235,1487865.5416596,NaN,NaN
120,50,24,categorization,0,bathroom,SHINEd_sun_alotolagknyrgtsk.tif,35,0.0666666666666667,0.0666666666666667,0.716666666666667,1487865.5480098,1487866.5317322,74,1487865.6190596,1487865.6833086,1487866.5372606,1487867.252265,NaN,NaN
