sub_num,trial,block,task,is_practice,category,image,texture,duration,mask_dur,jitter,stim_time,time_of_resp,trial_response,mask_time,fix_time,jit_onset,trial_end,trial_accuracy,RT
120,1,11,categorization,0,kitchen,SHINEd_sun_akcjzhbbjlbogpdi.tif,99,0.0666666666666667,0.0666666666666667,0.8,21569.203438083,21570.033176792,13,21569.266117917,21569.326164083,21570.044701542,21570.838038833,0,0.829738708998775
120,2,11,categorization,0,bathroom,SHINEd_sun_ausgutylgojavyoq.tif,53,0.0666666666666667,0.0666666666666667,1.13333333333333,21570.84424775,21571.505487583,13,21570.906088167,21570.966895583,21571.518864667,21572.645565042,1,0.661239832999854
120,3,11,categorization,0,bathroom,SHINEd_sun_aclfzgynxzxlbepz.tif,19,0.0666666666666667,0.0666666666666667,1.05,21572.654627083,21573.221739458,13,21572.719558667,21572.788588958,21573.244633417,21574.288017667,1,0.567112374999851
120,4,11,categorization,0,kitchen,SHINEd_sun_ahljzhgcdpomplvg.tif,91,0.0666666666666667,0.0666666666666667,1.05,21574.303665542,21575.081264542,9,21574.370406417,21574.4357895,21575.088251958,21576.131639208,1,0.777599000000919
120,5,11,categorization,0,kitchen,SHINEd_sun_aixorpehvfykdynp.tif,95,0.0666666666666667,0.0666666666666667,1.63333333333333,21576.144913917,21576.962214292,9,21576.209601417,21576.275813167,21576.982145875,21578.608853083,1,0.817300375001651
120,6,11,categorization,0,bathroom,SHINEd_sun_awnqiikzaispgmwo.tif,56,0.0666666666666667,0.0666666666666667,0.85,21578.6315945,21579.324191792,13,21578.698148875,21578.764130083,21579.35394925,21580.197316708,1,0.692597291999846
120,7,11,categorization,0,bathroom,SHINEd_sun_ajlawzvmubibwbpy.tif,30,0.0666666666666667,0.0666666666666667,1.5,21580.212793833,21581.362199917,13,21580.279402458,21580.337158583,21581.372857083,21582.866243458,1,1.14940608399775
120,8,11,categorization,0,bathroom,SHINEd_sun_alotolagknyrgtsk.tif,35,0.0666666666666667,0.0666666666666667,1.46666666666667,21582.883895333,21583.563919208,9,21582.9504535,21583.017368667,21583.589388458,21585.04944025,0,0.680023875000188
120,9,11,categorization,0,kitchen,SHINEd_sun_ahywdevtimnqcsln.tif,94,0.0666666666666667,0.0666666666666667,1.06666666666667,21585.068271,21585.978112333,9,21585.134811542,21585.200768208,21585.988629125,21587.04867975,1,0.909841332999349
120,10,11,categorization,0,kitchen,SHINEd_sun_ajcbwwvdlsvjyzje.tif,96,0.0666666666666667,0.0666666666666667,0.8,21587.062686583,21588.433271625,9,21587.12775475,21587.192954167,21588.450763042,21589.244102167,1,1.3705850419974
120,11,11,categorization,0,bathroom,SHINEd_sun_afcoljnjfoxjtgja.tif,20,0.0666666666666667,0.0666666666666667,1.41666666666667,21589.250037958,21590.098144958,13,21589.311837083,21589.372630083,21590.10777675,21591.517829542,1,0.848106999997981
120,12,11,categorization,0,bathroom,SHINEd_sun_aghyqhbptboemmoq.tif,23,0.0666666666666667,0.0666666666666667,1.71666666666667,21591.534393125,21594.106002458,9,21591.602540917,21591.667048583,21594.119378375,21595.829419,0,2.57160933300111
120,13,11,categorization,0,bathroom,SHINEd_sun_agyqfjcfkdcydepw.tif,25,0.0666666666666667,0.0666666666666667,0.833333333333333,21595.847068875,21596.797447708,13,21595.91360825,21595.977878417,21596.817292625,21597.643965,1,0.950378833000286
120,14,11,categorization,0,bathroom,SHINEd_sun_aapitsgbtktqubfy.tif,12,0.0666666666666667,0.0666666666666667,0.783333333333333,21597.649624208,21598.337471333,13,21597.711703417,21597.7723065,21598.341046292,21599.11771625,1,0.687847125002008
120,15,11,categorization,0,kitchen,SHINEd_sun_abrcnpqqhmjwekyf.tif,73,0.0666666666666667,0.0666666666666667,0.866666666666667,21599.1233535,21601.122119792,13,21599.185081167,21599.246004417,21601.131898125,21601.991901083,0,1.99876629199935
120,16,11,categorization,0,bathroom,SHINEd_sun_axyrejkiiaqiurjk.tif,59,0.0666666666666667,0.0666666666666667,1.08333333333333,21601.996695167,21603.385037792,13,21602.058518583,21602.119398708,21603.405308417,21604.482003708,1,1.3883426249995
120,17,11,categorization,0,kitchen,SHINEd_sun_ajkqhtgcbgpcwrwn.tif,97,0.0666666666666667,0.0666666666666667,1.1,21604.494490375,21605.917645375,13,21604.558927292,21604.626200583,21605.931164,21607.024527375,0,1.42315500000041
120,18,11,categorization,0,kitchen,SHINEd_sun_awcpdzzznmweyyhv.tif,106,0.0666666666666667,0.0666666666666667,1.5,21607.03492275,21608.471006667,9,21607.0998045,21607.167352458,21608.49232525,21609.985699083,1,1.43608391700036
120,19,11,categorization,0,bathroom,SHINEd_sun_aljolscmmzydegqp.tif,33,0.0666666666666667,0.0666666666666667,0.833333333333333,21609.995422292,21610.914290292,13,21610.062105958,21610.127752583,21610.933963042,21611.760633625,1,0.918868000000657
120,20,11,categorization,0,kitchen,SHINEd_sun_aapllqyqlykszopd.tif,66,0.0666666666666667,0.0666666666666667,1.76666666666667,21611.765867375,21613.545554958,13,21611.827620542,21611.88868675,21613.558024875,21615.318079208,0,1.77968758299903
120,21,11,categorization,0,kitchen,SHINEd_sun_aggjlwcdjsjcaemh.tif,86,0.0666666666666667,0.0666666666666667,1.18333333333333,21615.336257458,21618.875307833,9,21615.403455083,21615.468622917,21618.892028667,21620.06874675,1,3.53905037500226
120,22,11,categorization,0,bathroom,SHINEd_sun_ahijqszoswveeyji.tif,28,0.0666666666666667,0.0666666666666667,0.933333333333333,21620.079092708,21620.799800917,13,21620.145920417,21620.212305208,21620.819117208,21621.745829,1,0.720708208998985
120,23,11,categorization,0,bathroom,SHINEd_sun_apmqjbnwghzuhhzh.tif,46,0.0666666666666667,0.0666666666666667,0.716666666666667,21621.76240525,21622.402038833,13,21621.82909525,21621.894771542,21622.413851417,21623.12385525,1,0.639633582999522
120,24,11,categorization,0,kitchen,SHINEd_sun_aadbddgrdsjugojn.tif,64,0.0666666666666667,0.0666666666666667,1.25,21623.128695083,21623.841898375,13,21623.19040975,21623.251467875,21623.853445833,21625.096819,0,0.713203292001708
120,25,11,categorization,0,bathroom,SHINEd_sun_aavhrsfjbserjtht.tif,13,0.0666666666666667,0.0666666666666667,0.866666666666667,21625.11369175,21625.985410458,13,21625.18044725,21625.245924208,21626.000714292,21626.860764625,1,0.871718708000117
120,26,11,categorization,0,bathroom,SHINEd_sun_axxbkopsgyouuebh.tif,58,0.0666666666666667,0.0666666666666667,1.08333333333333,21626.876532417,21627.721449708,13,21626.939062792,21626.999201792,21627.7345845,21628.811290333,1,0.844917290996818
120,27,11,categorization,0,bathroom,SHINEd_labelme_sfxiulhjbhlyiyt.tif,11,0.0666666666666667,0.0666666666666667,1.9,21628.821776875,21629.709904667,13,21628.887021083,21628.954118042,21629.726559792,21631.61994,1,0.888127792000887
120,28,11,categorization,0,kitchen,SHINEd_labelme_kxvouciolcpqplr.tif,62,0.0666666666666667,0.0666666666666667,0.866666666666667,21631.633819708,21632.566090708,13,21631.700549125,21631.766365333,21632.589570167,21633.449573583,0,0.932270999997854
120,29,11,categorization,0,bathroom,SHINEd_sun_aofnryafpsjimzsb.tif,40,0.0666666666666667,0.0666666666666667,1.05,21633.454706167,21634.793366083,13,21633.516394667,21633.577273417,21634.812620375,21635.855991875,1,1.33865991600032
120,30,11,categorization,0,kitchen,SHINEd_sun_abpwyqmlzafvklqo.tif,72,0.0666666666666667,0.0666666666666667,1.65,21635.864721042,21637.259040958,13,21635.928745583,21635.996393875,21637.287717667,21638.931096417,0,1.39431991600213
120,31,11,categorization,0,kitchen,SHINEd_sun_abdxkyyxwfskuaqb.tif,70,0.0666666666666667,0.0666666666666667,0.716666666666667,21638.950360042,21641.041978833,13,21639.017614292,21639.083027167,21641.052630833,21641.762634375,0,2.09161879100066
120,32,11,categorization,0,bathroom,SHINEd_sun_aggnnqpdorgxpvce.tif,21,0.0666666666666667,0.0666666666666667,1.36666666666667,21641.767585625,21642.513748792,13,21641.829445167,21641.8902305,21642.525726458,21643.885770667,1,0.746163167001214
120,33,11,categorization,0,kitchen,SHINEd_sun_acgtpgfybqjmzeyw.tif,75,0.0666666666666667,0.0666666666666667,1.11666666666667,21643.902647625,21644.835884917,9,21643.967430667,21644.034535917,21644.857638083,21645.967670042,1,0.933237291999831
120,34,11,categorization,0,bathroom,SHINEd_sun_apjevzvycyhuqghb.tif,43,0.0666666666666667,0.0666666666666667,0.983333333333333,21645.979433042,21647.969491417,13,21646.044169458,21646.110573083,21647.979654,21648.956326708,1,1.99005837499863
120,35,11,categorization,0,kitchen,SHINEd_sun_ahdycvpopffkzzsu.tif,90,0.0666666666666667,0.0666666666666667,1.15,21648.961842292,21649.985025625,13,21649.0235935,21649.084428125,21650.002862125,21651.146241875,0,1.02318333299991
120,36,11,categorization,0,kitchen,SHINEd_sun_abdenxonkemggwsq.tif,69,0.0666666666666667,0.0666666666666667,1.08333333333333,21651.156137208,21652.010983333,13,21651.222654625,21651.288196,21652.026353625,21653.103062458,0,0.854846124999312
120,37,11,categorization,0,bathroom,SHINEd_sun_aoybiabnpadelefl.tif,41,0.0666666666666667,0.0666666666666667,1.21666666666667,21653.112967792,21653.861265583,13,21653.179742375,21653.24523125,21653.885480625,21655.095530625,1,0.748297791000368
120,38,11,categorization,0,kitchen,SHINEd_sun_aexklacwqwezaorf.tif,84,0.0666666666666667,0.0666666666666667,0.783333333333333,21655.103871917,21655.801912875,13,21655.165996458,21655.226548833,21655.811705875,21656.588376708,0,0.698040957999183
120,39,11,categorization,0,kitchen,SHINEd_sun_agorklincwxrdtga.tif,87,0.0666666666666667,0.0666666666666667,1,21656.59384725,21657.185326958,13,21656.655473292,21656.716584083,21657.202188625,21658.195525292,0,0.591479708000406
120,40,11,categorization,0,kitchen,SHINEd_labelme_rykdqxenmhulbdn.tif,63,0.0666666666666667,0.0666666666666667,1.83333333333333,21658.200778083,21659.241405958,13,21658.262411167,21658.323465167,21659.259100375,21661.085810542,0,1.04062787500152
120,41,11,categorization,0,kitchen,SHINEd_sun_acfmftudsenhrfhy.tif,74,0.0666666666666667,0.0666666666666667,1.15,21661.102934625,21661.8602245,9,21661.171505542,21661.235291208,21661.87392675,21663.017313708,1,0.757289875000424
120,42,11,categorization,0,kitchen,SHINEd_sun_akchetnepxlcxhsu.tif,98,0.0666666666666667,0.0666666666666667,1.33333333333333,21663.028413875,21663.918029458,13,21663.09357825,21663.160925208,21663.931978417,21665.258685333,0,0.889615583000705
120,43,11,categorization,0,bathroom,SHINEd_sun_atstyziqcmkahyxk.tif,51,0.0666666666666667,0.0666666666666667,1.11666666666667,21665.28064175,21666.370847375,13,21665.347428583,21665.413747417,21666.3864175,21667.496465958,1,1.09020562500154
120,44,11,categorization,0,bathroom,SHINEd_sun_ambriybtogmepttm.tif,36,0.0666666666666667,0.0666666666666667,1.91666666666667,21667.507773792,21668.305999417,13,21667.572766542,21667.640255583,21668.33031125,21670.240345083,1,0.798225624999759
120,45,11,categorization,0,bathroom,SHINEd_sun_anhioqovhscjqqwb.tif,38,0.0666666666666667,0.0666666666666667,0.783333333333333,21670.257408417,21671.164165083,9,21670.324194667,21670.389761792,21671.178291375,21671.954962792,0,0.906756665997818
120,46,11,categorization,0,bathroom,SHINEd_sun_acegryoqftbzowsg.tif,17,0.0666666666666667,0.0666666666666667,1,21671.960247667,21674.073507333,13,21672.02196275,21672.082939625,21674.084923042,21675.078259875,1,2.11325966599907
120,47,11,categorization,0,kitchen,SHINEd_sun_aunzlwrbjumxhwdj.tif,103,0.0666666666666667,0.0666666666666667,1.38333333333333,21675.083928958,21675.993504375,9,21675.145679875,21675.206578417,21676.008355792,21677.385063708,1,0.909575417001179
120,48,11,categorization,0,kitchen,SHINEd_sun_abftihopvusyfakt.tif,71,0.0666666666666667,0.0666666666666667,1.55,21677.40197975,21678.269147542,9,21677.468850667,21677.534625667,21678.291229417,21679.834602667,1,0.867167791999236
120,49,11,categorization,0,kitchen,SHINEd_sun_aaxxjlsuzvqlgylf.tif,68,0.0666666666666667,0.0666666666666667,1.03333333333333,21679.852632833,21680.949504208,13,21679.919057375,21679.9837635,21680.973944875,21682.000648417,0,1.09687137500077
120,50,11,categorization,0,kitchen,SHINEd_sun_acwjdupvyjsugpay.tif,76,0.0666666666666667,0.0666666666666667,1.46666666666667,21682.011601583,21682.776773167,9,21682.076275625,21682.142585083,21682.798950792,21684.258987708,1,0.7651715840002
