sub_num,trial,block,task,is_practice,category,image,texture,duration,mask_dur,jitter,stim_time,time_of_resp,trial_response,mask_time,fix_time,jit_onset,trial_end,trial_accuracy,RT
120,1,7,categorization,0,bathroom,SHINEd_sun_apkxzenqapsujocq.tif,45,0.0666666666666667,0.0666666666666667,0.883333333333333,1485887.5998544,1485888.2914289,74,1485887.6722686,1485887.7352648,1485888.2963789,1485889.1780494,NaN,NaN
120,2,7,categorization,0,kitchen,SHINEd_sun_aadbddgrdsjugojn.tif,64,0.0666666666666667,0.0666666666666667,1.03333333333333,1485889.1841261,1485889.8684139,70,1485889.2551915,1485889.319303,1485889.8738851,1485890.9055555,NaN,NaN
120,3,7,categorization,0,bathroom,SHINEd_sun_anhioqovhscjqqwb.tif,38,0.0666666666666667,0.0666666666666667,1.06666666666667,1485890.912051,1485891.5802909,74,1485890.9828462,1485891.0473653,1485891.5865833,1485892.6515874,NaN,NaN
120,4,7,categorization,0,kitchen,SHINEd_sun_agorklincwxrdtga.tif,87,0.0666666666666667,0.0666666666666667,0.833333333333333,1485892.6585345,1485893.3495796,70,1485892.7299064,1485892.7940759,1485893.3555726,1485894.1872445,NaN,NaN
120,5,7,categorization,0,bathroom,SHINEd_sun_aleqenyvunhactkl.tif,32,0.0666666666666667,0.0666666666666667,0.716666666666667,1485894.193458,1485894.8415309,74,1485894.2646601,1485894.3288199,1485894.8466713,1485895.5616769,NaN,NaN
120,6,7,categorization,0,bathroom,SHINEd_sun_aoybiabnpadelefl.tif,41,0.0666666666666667,0.0666666666666667,0.733333333333333,1485895.5680122,1485896.4901682,74,1485895.6391202,1485895.7031958,1485896.4957056,1485897.2273762,NaN,NaN
120,7,7,categorization,0,bathroom,SHINEd_sun_abjtwfukuwddzted.tif,15,0.0666666666666667,0.0666666666666667,1.38333333333333,1485897.2331691,1485897.9130645,74,1485897.3036697,1485897.3685229,1485897.918292,1485899.2999739,NaN,NaN
120,8,7,categorization,0,bathroom,SHINEd_sun_atstyziqcmkahyxk.tif,51,0.0666666666666667,0.0666666666666667,0.9,1485899.306385,1485899.8689601,74,1485899.3777125,1485899.4426819,1485899.8745965,1485900.7729351,NaN,NaN
120,9,7,categorization,0,bathroom,SHINEd_sun_alotolagknyrgtsk.tif,35,0.0666666666666667,0.0666666666666667,0.816666666666667,1485900.7790576,1485901.7720949,74,1485900.8512739,1485900.9144102,1485901.7773681,1485902.5923731,NaN,NaN
120,10,7,categorization,0,kitchen,SHINEd_sun_auaiucuqpdausiva.tif,101,0.0666666666666667,0.0666666666666667,0.85,1485902.5988753,1485903.4317824,70,1485902.6701225,1485902.7346479,1485903.4373907,1485904.2857276,NaN,NaN
120,11,7,categorization,0,kitchen,SHINEd_sun_akcjzhbbjlbogpdi.tif,98,0.0666666666666667,0.0666666666666667,1.6,1485904.292982,1485904.9482881,70,1485904.3641517,1485904.4292181,1485904.9543404,1485906.5526779,NaN,NaN
120,12,7,categorization,0,kitchen,SHINEd_sun_afuyedyxivkhecmu.tif,85,0.0666666666666667,0.0666666666666667,1.75,1485906.5589125,1485907.320262,70,1485906.6299541,1485906.694208,1485907.3259489,1485909.0742976,NaN,NaN
120,13,7,categorization,0,bathroom,SHINEd_sun_aqrpegblszgcoujh.tif,48,0.0666666666666667,0.0666666666666667,1.1,1485909.0804304,1485910.1534065,74,1485909.1530406,1485909.2172283,1485910.1595668,1485911.2579156,NaN,NaN
120,14,7,categorization,0,kitchen,SHINEd_sun_aamedkxepzlwuxes.tif,65,0.0666666666666667,0.0666666666666667,1.46666666666667,1485911.2654306,1485912.3033821,70,1485911.3380393,1485911.4007608,1485912.3088192,1485913.7738227,NaN,NaN
120,15,7,categorization,0,bathroom,SHINEd_sun_apkruvsevgegsdwp.tif,44,0.0666666666666667,0.0666666666666667,1.25,1485913.7800585,1485914.4068947,74,1485913.8512033,1485913.9153785,1485914.4131627,1485915.6615,NaN,NaN
120,16,7,categorization,0,kitchen,SHINEd_sun_aehawpgmrlhlvcow.tif,81,0.0666666666666667,0.0666666666666667,1.13333333333333,1485915.6679253,1485916.4498585,70,1485915.7403903,1485915.8035578,1485916.4554588,1485917.5871297,NaN,NaN
120,17,7,categorization,0,kitchen,SHINEd_sun_aaxxjlsuzvqlgylf.tif,68,0.0666666666666667,0.0666666666666667,1.33333333333333,1485917.5931616,1485918.2822924,70,1485917.6642654,1485917.729466,1485918.2874682,1485919.6191389,NaN,NaN
120,18,7,categorization,0,kitchen,SHINEd_sun_aeqdocilnnpuvuhx.tif,83,0.0666666666666667,0.0666666666666667,1.86666666666667,1485919.6253552,1485920.2933013,70,1485919.6961793,1485919.7620461,1485920.2989229,1485922.1639272,NaN,NaN
120,19,7,categorization,0,bathroom,SHINEd_labelme_sfxiulhjbhlyiyt.tif,11,0.0666666666666667,0.0666666666666667,1.58333333333333,1485922.1703368,1485922.7803016,74,1485922.2428448,1485922.30554,1485922.7863952,1485924.3680668,NaN,NaN
120,20,7,categorization,0,kitchen,SHINEd_sun_avszsnwsbuqfgzbn.tif,104,0.0666666666666667,0.0666666666666667,1.05,1485924.3758125,1485924.9272833,70,1485924.44623,1485924.5104874,1485924.933597,1485925.9819358,NaN,NaN
120,21,7,categorization,0,kitchen,SHINEd_sun_acwjdupvyjsugpay.tif,76,0.0666666666666667,0.0666666666666667,0.9,1485925.9894789,1485926.7672712,70,1485926.0604061,1485926.1256903,1485926.7732851,1485927.671622,NaN,NaN
120,22,7,categorization,0,kitchen,SHINEd_sun_ahdycvpopffkzzsu.tif,90,0.0666666666666667,0.0666666666666667,0.7,1485927.6794984,1485928.4594752,70,1485927.7506852,1485927.8152835,1485928.4650645,1485929.1634039,NaN,NaN
120,23,7,categorization,0,kitchen,SHINEd_sun_ahljzhgcdpomplvg.tif,91,0.0666666666666667,0.0666666666666667,0.933333333333333,1485929.170091,1485929.7556827,70,1485929.2418235,1485929.3053247,1485929.7610686,1485930.6927399,NaN,NaN
120,24,7,categorization,0,bathroom,SHINEd_sun_auzqhkafidnkrwmo.tif,54,0.0666666666666667,0.0666666666666667,1.95,1485930.6986954,1485931.3512356,74,1485930.7696192,1485930.8356637,1485931.3565951,1485933.3049317,NaN,NaN
120,25,7,categorization,0,bathroom,SHINEd_sun_apmqjbnwghzuhhzh.tif,46,0.0666666666666667,0.0666666666666667,1.06666666666667,1485933.3114966,1485933.9180964,74,1485933.3827527,1485933.4480088,1485933.923509,1485934.9885129,NaN,NaN
120,26,7,categorization,0,bathroom,SHINEd_sun_afcoljnjfoxjtgja.tif,20,0.0666666666666667,0.0666666666666667,1.2,1485934.9943751,1485935.6600022,74,1485935.0650441,1485935.1295593,1485935.6655066,1485936.8638453,NaN,NaN
120,27,7,categorization,0,kitchen,SHINEd_sun_acfmftudsenhrfhy.tif,74,0.0666666666666667,0.0666666666666667,0.75,1485936.8696728,1485937.5183757,70,1485936.9411898,1485937.0054666,1485937.5247003,1485938.2730384,NaN,NaN
120,28,7,categorization,0,bathroom,SHINEd_sun_agyqfjcfkdcydepw.tif,25,0.0666666666666667,0.0666666666666667,0.816666666666667,1485938.2792489,1485938.847299,74,1485938.3502139,1485938.4142675,1485938.8529405,1485939.6679447,NaN,NaN
120,29,7,categorization,0,bathroom,SHINEd_sun_anryaplzeujmzfkd.tif,39,0.0666666666666667,0.0666666666666667,1.96666666666667,1485939.6735703,1485940.2198852,74,1485939.7441362,1485939.8105558,1485940.2261969,1485942.1911999,NaN,NaN
120,30,7,categorization,0,kitchen,SHINEd_labelme_rykdqxenmhulbdn.tif,63,0.0666666666666667,0.0666666666666667,1.2,1485942.1977457,1485942.863764,70,1485942.270184,1485942.3327459,1485942.8697237,1485944.0680607,NaN,NaN
120,31,7,categorization,0,bathroom,SHINEd_sun_apeeialkgkuxddgh.tif,42,0.0666666666666667,0.0666666666666667,0.883333333333333,1485944.0742789,1485944.5979925,74,1485944.1453684,1485944.2096956,1485944.6032919,1485945.4849625,NaN,NaN
120,32,7,categorization,0,kitchen,SHINEd_sun_abftihopvusyfakt.tif,71,0.0666666666666667,0.0666666666666667,1.33333333333333,1485945.4908925,1485946.0648666,70,1485945.5613895,1485945.6260784,1485946.0702086,1485947.4018809,NaN,NaN
120,33,7,categorization,0,bathroom,SHINEd_sun_axxbkopsgyouuebh.tif,58,0.0666666666666667,0.0666666666666667,1.45,1485947.4077949,1485948.0425394,74,1485947.4785238,1485947.5429327,1485948.0485601,1485949.4968983,NaN,NaN
120,34,7,categorization,0,bathroom,SHINEd_sun_aclfzgynxzxlbepz.tif,19,0.0666666666666667,0.0666666666666667,1.15,1485949.5031615,1485950.1164474,74,1485949.5744317,1485949.6386195,1485950.1227445,1485951.2710816,NaN,NaN
120,35,7,categorization,0,bathroom,SHINEd_sun_apjevzvycyhuqghb.tif,43,0.0666666666666667,0.0666666666666667,0.966666666666667,1485951.2770547,1485952.0811355,74,1485951.3480989,1485951.4122971,1485952.0867202,1485953.0517246,NaN,NaN
120,36,7,categorization,0,bathroom,SHINEd_sun_aofnryafpsjimzsb.tif,40,0.0666666666666667,0.0666666666666667,1.45,1485953.0577872,1485953.7025216,74,1485953.1289427,1485953.1946705,1485953.7086171,1485955.1569551,NaN,NaN
120,37,7,categorization,0,bathroom,SHINEd_sun_ajlawzvmubibwbpy.tif,30,0.0666666666666667,0.0666666666666667,0.8,1485955.1629341,1485956.0377358,74,1485955.2342034,1485955.2987564,1485956.0431496,1485956.8414964,NaN,NaN
120,38,7,categorization,0,bathroom,SHINEd_sun_agrwbmhcpmfuwmsg.tif,24,0.0666666666666667,0.0666666666666667,1.45,1485956.8479317,1485957.400823,74,1485956.919135,1485956.9844623,1485957.4067847,1485958.8551219,NaN,NaN
120,39,7,categorization,0,kitchen,SHINEd_sun_aegoxogugdkwpmpj.tif,80,0.0666666666666667,0.0666666666666667,1.1,1485958.8613131,1485959.5073325,70,1485958.9323386,1485958.9965619,1485959.5134182,1485960.6117572,NaN,NaN
120,40,7,categorization,0,kitchen,SHINEd_sun_abpwyqmlzafvklqo.tif,72,0.0666666666666667,0.0666666666666667,1.16666666666667,1485960.6181197,1485961.2809686,70,1485960.6894851,1485960.7532563,1485961.2862393,1485962.4512437,NaN,NaN
120,41,7,categorization,0,kitchen,SHINEd_sun_aymvwlarqodbwuoc.tif,107,0.0666666666666667,0.0666666666666667,1.31666666666667,1485962.458863,1485963.0044819,74,1485962.529614,1485962.5940295,1485963.0104995,1485964.3255043,NaN,NaN
120,42,7,categorization,0,kitchen,SHINEd_sun_awcpdzzznmweyyhv.tif,105,0.0666666666666667,0.0666666666666667,1.68333333333333,1485964.3317188,1485964.9695522,70,1485964.4040902,1485964.4669662,1485964.9756824,1485966.6573543,NaN,NaN
120,43,7,categorization,0,kitchen,SHINEd_sun_aggjlwcdjsjcaemh.tif,86,0.0666666666666667,0.0666666666666667,0.966666666666667,1485966.6637669,1485967.3979033,70,1485966.7345238,1485966.7989895,1485967.4033003,1485968.3683054,NaN,NaN
120,44,7,categorization,0,kitchen,SHINEd_sun_aenotlpyftoioydp.tif,82,0.0666666666666667,0.0666666666666667,1.4,1485968.3740498,1485968.9843765,70,1485968.4453356,1485968.5099732,1485968.9900346,1485970.3883724,NaN,NaN
120,45,7,categorization,0,kitchen,SHINEd_sun_abdxkyyxwfskuaqb.tif,70,0.0666666666666667,0.0666666666666667,0.783333333333333,1485970.3945162,1485971.2714508,70,1485970.4654523,1485970.529853,1485971.2778728,1485972.0595425,NaN,NaN
120,46,7,categorization,0,kitchen,SHINEd_sun_aexklacwqwezaorf.tif,84,0.0666666666666667,0.0666666666666667,1.08333333333333,1485972.065876,1485973.0084419,74,1485972.1367499,1485972.2011228,1485973.0146988,1485974.0963694,NaN,NaN
120,47,7,categorization,0,bathroom,SHINEd_sun_aapitsgbtktqubfy.tif,12,0.0666666666666667,0.0666666666666667,1.43333333333333,1485974.1026883,1485974.6742126,74,1485974.1754373,1485974.2395461,1485974.6805633,1485976.1122337,NaN,NaN
120,48,7,categorization,0,bathroom,SHINEd_sun_asfwthctfqerjvxr.tif,49,0.0666666666666667,0.0666666666666667,1.75,1485976.1181491,1485976.8161683,74,1485976.1894681,1485976.2533961,1485976.8221778,1485978.5705167,NaN,NaN
120,49,7,categorization,0,kitchen,SHINEd_sun_ahpczsiumwwocjkv.tif,92,0.0666666666666667,0.0666666666666667,1.21666666666667,1485978.5767768,1485979.3430321,70,1485978.6478468,1485978.7121067,1485979.3485814,1485980.5635872,NaN,NaN
120,50,7,categorization,0,bathroom,SHINEd_sun_axyrejkiiaqiurjk.tif,59,0.0666666666666667,0.0666666666666667,1.31666666666667,1485980.5699657,1485981.1474452,70,1485980.641052,1485980.7050292,1485981.1533617,1485982.4683655,NaN,NaN
