sub_num,trial,block,task,is_practice,category,image,texture,duration,mask_dur,jitter,stim_time,time_of_resp,trial_response,mask_time,fix_time,jit_onset,trial_end,trial_accuracy,RT
120,1,5,categorization,0,bathroom,SHINEd_sun_auzqhkafidnkrwmo.tif,54,0.0666666666666667,0.0666666666666667,1.7,20690.938748792,20691.885426333,13,20691.001180708,20691.061749958,20691.897178583,20693.590556333,1,0.946677541000099
120,2,5,categorization,0,bathroom,SHINEd_sun_apkruvsevgegsdwp.tif,44,0.0666666666666667,0.0666666666666667,1.81666666666667,20693.604394958,20694.402305083,13,20693.672674875,20693.735463042,20694.425561083,20696.235606625,1,0.797910124998452
120,3,5,categorization,0,kitchen,SHINEd_labelme_rykdqxenmhulbdn.tif,63,0.0666666666666667,0.0666666666666667,1.23333333333333,20696.252303625,20697.669231417,13,20696.318531625,20696.384112,20697.686971375,20698.913682625,0,1.41692779200093
120,4,5,categorization,0,bathroom,SHINEd_sun_alkosphxlxwjwgjd.tif,34,0.0666666666666667,0.0666666666666667,1.4,20698.929907042,20699.607373042,13,20698.99637425,20699.062398292,20699.63558625,20701.028967583,1,0.677466000001004
120,5,5,categorization,0,kitchen,SHINEd_sun_agzzivivdpnawacl.tif,89,0.0666666666666667,0.0666666666666667,1.03333333333333,20701.046256375,20701.694526292,13,20701.112568417,20701.17869025,20701.71821275,20702.7449205,0,0.648269917001016
120,6,5,categorization,0,bathroom,SHINEd_sun_axldvoqbuvuggfmq.tif,57,0.0666666666666667,0.0666666666666667,1.38333333333333,20702.762128708,20703.836841625,13,20702.829846417,20702.894653208,20703.847093917,20705.223802417,1,1.07471291700131
120,7,5,categorization,0,kitchen,SHINEd_sun_abdenxonkemggwsq.tif,69,0.0666666666666667,0.0666666666666667,2,20705.240030333,20706.606528583,13,20705.307981375,20705.372845125,20706.630712958,20708.624102,0,1.36649825000131
120,8,5,categorization,0,bathroom,SHINEd_sun_aggnnqpdorgxpvce.tif,21,0.0666666666666667,0.0666666666666667,1.85,20708.640979125,20709.726380083,13,20708.7090165,20708.773375333,20709.746555667,20711.589941125,1,1.08540095799981
120,9,5,categorization,0,bathroom,SHINEd_sun_axxbkopsgyouuebh.tif,58,0.0666666666666667,0.0666666666666667,0.816666666666667,20711.606861958,20712.34917925,13,20711.673844292,20711.739341417,20712.379208417,20713.189212625,1,0.742317291998916
120,10,5,categorization,0,kitchen,SHINEd_sun_aypmqwcualkenuoe.tif,109,0.0666666666666667,0.0666666666666667,1.85,20713.195076958,20714.060958708,9,20713.256888625,20713.317754167,20714.069631125,20715.912995958,1,0.865881749999971
120,11,5,categorization,0,bathroom,SHINEd_sun_acgyywnybuveqsro.tif,18,0.0666666666666667,0.0666666666666667,0.733333333333333,20715.925563333,20716.6306745,13,20715.990446583,20716.057952042,20716.64691875,20717.373589333,1,0.705111167000723
120,12,5,categorization,0,kitchen,SHINEd_sun_ahspylgoovwmwvgk.tif,93,0.0666666666666667,0.0666666666666667,0.716666666666667,20717.381598,20718.541354083,9,20717.443409583,20717.504329125,20718.556141125,20719.266144708,1,1.15975608300141
120,13,5,categorization,0,bathroom,SHINEd_sun_aunuadmjocsddsrl.tif,52,0.0666666666666667,0.0666666666666667,0.833333333333333,20719.271202542,20720.404616708,13,20719.333050458,20719.393950917,20720.412620417,20721.239290625,1,1.13341416600088
120,14,5,categorization,0,bathroom,SHINEd_sun_ahijqszoswveeyji.tif,28,0.0666666666666667,0.0666666666666667,0.95,20721.244701042,20723.1252475,13,20721.306737958,20721.367372875,20723.136101,20724.079438583,1,1.88054645800003
120,15,5,categorization,0,bathroom,SHINEd_sun_ahcvzmoyaycdoftf.tif,27,0.0666666666666667,0.0666666666666667,1.96666666666667,20724.084485458,20724.836925708,13,20724.146277375,20724.207171292,20724.842562875,20726.802614375,1,0.75244025000211
120,16,5,categorization,0,kitchen,SHINEd_sun_aggjlwcdjsjcaemh.tif,86,0.0666666666666667,0.0666666666666667,1.86666666666667,20726.819248167,20728.668858083,9,20726.88571875,20726.951946583,20728.687551958,20730.547598917,1,1.84960991600019
120,17,5,categorization,0,bathroom,SHINEd_sun_avhrdrntsqrjzccq.tif,55,0.0666666666666667,0.0666666666666667,1.51666666666667,20730.564066292,20731.389857,13,20730.6305295,20730.69807025,20731.403449125,20732.913487542,1,0.82579070799693
120,18,5,categorization,0,bathroom,SHINEd_sun_acegryoqftbzowsg.tif,17,0.0666666666666667,0.0666666666666667,1.3,20732.93551525,20733.685324708,13,20733.002640625,20733.06804175,20733.707865208,20735.001249333,1,0.749809458000527
120,19,5,categorization,0,bathroom,SHINEd_sun_aspsyogrekjtfozg.tif,50,0.0666666666666667,0.0666666666666667,1.91666666666667,20735.021979,20735.680597333,13,20735.090000333,20735.157230167,20735.696972542,20737.607013542,1,0.658618333000049
120,20,5,categorization,0,bathroom,SHINEd_sun_agguqiubmwhqqunb.tif,22,0.0666666666666667,0.0666666666666667,1.23333333333333,20737.624903125,20738.372243083,13,20737.693465667,20737.75749425,20738.398347583,20739.625052833,1,0.74733995799761
120,21,5,categorization,0,bathroom,SHINEd_sun_aofnryafpsjimzsb.tif,40,0.0666666666666667,0.0666666666666667,0.866666666666667,20739.645392792,20740.272987,13,20739.712340583,20739.778161458,20740.30272275,20741.162753042,1,0.627594207999209
120,22,5,categorization,0,kitchen,SHINEd_sun_ahpczsiumwwocjkv.tif,92,0.0666666666666667,0.0666666666666667,0.8,20741.180286875,20741.757464708,13,20741.247964167,20741.312806083,20741.76495275,20742.558292042,0,0.57717783300177
120,23,5,categorization,0,kitchen,SHINEd_sun_aymvwlarqodbwuoc.tif,108,0.0666666666666667,0.0666666666666667,1.51666666666667,20742.564436792,20743.380619542,9,20742.626234,20742.687091917,20743.389097667,20744.89914,1,0.816182750000735
120,24,5,categorization,0,kitchen,SHINEd_sun_auaiucuqpdausiva.tif,102,0.0666666666666667,0.0666666666666667,1.18333333333333,20744.917696875,20746.053057167,9,20744.984185417,20745.049863625,20746.072429833,20747.249139417,1,1.13536029199895
120,25,5,categorization,0,kitchen,SHINEd_sun_akcjzhbbjlbogpdi.tif,99,0.0666666666666667,0.0666666666666667,1.6,20747.258892,20748.505053708,9,20747.326892125,20747.391266042,20748.532687458,20750.126052167,1,1.24616170799709
120,26,5,categorization,0,kitchen,SHINEd_sun_azmutvzbxypaceni.tif,110,0.0666666666666667,0.0666666666666667,1.56666666666667,20750.144367333,20751.151646458,13,20750.21334825,20750.276936875,20751.165797042,20752.725841375,0,1.00727912500224
120,27,5,categorization,0,kitchen,SHINEd_sun_akchetnepxlcxhsu.tif,98,0.0666666666666667,0.0666666666666667,1.36666666666667,20752.744215833,20753.524506792,13,20752.811396917,20752.876424542,20753.549644375,20754.909680458,0,0.780290958999103
120,28,5,categorization,0,kitchen,SHINEd_sun_acgtpgfybqjmzeyw.tif,75,0.0666666666666667,0.0666666666666667,1.53333333333333,20754.927691792,20756.408914,9,20754.994421958,20755.060048583,20756.434639167,20757.961344042,1,1.48122220799996
120,29,5,categorization,0,kitchen,SHINEd_sun_ajkqhtgcbgpcwrwn.tif,97,0.0666666666666667,0.0666666666666667,1.4,20757.971606958,20759.78124575,9,20758.040206458,20758.104271667,20759.790132292,20761.183507708,1,1.80963879200135
120,30,5,categorization,0,kitchen,SHINEd_labelme_kxvouciolcpqplr.tif,62,0.0666666666666667,0.0666666666666667,1.06666666666667,20761.202086042,20762.560932958,9,20761.269035375,20761.33492,20762.577307667,20763.63735225,1,1.35884691599858
120,31,5,categorization,0,bathroom,SHINEd_sun_apjevzvycyhuqghb.tif,43,0.0666666666666667,0.0666666666666667,1.63333333333333,20763.648490125,20764.801164875,9,20763.713411417,20763.779916042,20764.819700792,20766.446408375,0,1.15267474999928
120,32,5,categorization,0,bathroom,SHINEd_sun_apkxzenqapsujocq.tif,45,0.0666666666666667,0.0666666666666667,1.8,20766.467287625,20767.392175125,13,20766.534149875,20766.599545583,20767.4053785,20769.19875725,1,0.924887500001205
120,33,5,categorization,0,bathroom,SHINEd_sun_apmqjbnwghzuhhzh.tif,46,0.0666666666666667,0.0666666666666667,1.53333333333333,20769.219223125,20770.007423667,13,20769.285488833,20769.352004458,20770.024123708,20771.550832417,1,0.788200541999686
120,34,5,categorization,0,bathroom,SHINEd_sun_aleqenyvunhactkl.tif,32,0.0666666666666667,0.0666666666666667,0.766666666666667,20771.569806958,20772.365868417,13,20771.636718583,20771.702574125,20772.39241,20773.152416125,1,0.796061459001066
120,35,5,categorization,0,bathroom,SHINEd_sun_akiytfaagpdsphgz.tif,31,0.0666666666666667,0.0666666666666667,1.86666666666667,20773.1583715,20773.869196625,13,20773.220065333,20773.281034375,20773.883488083,20775.74353325,1,0.710825124999246
120,36,5,categorization,0,bathroom,SHINEd_sun_aqrpegblszgcoujh.tif,48,0.0666666666666667,0.0666666666666667,1.13333333333333,20775.760503167,20776.462993,13,20775.828645583,20775.8929575,20776.48258925,20777.609306583,1,0.702489833001891
120,37,5,categorization,0,kitchen,SHINEd_sun_aunzlwrbjumxhwdj.tif,103,0.0666666666666667,0.0666666666666667,1.73333333333333,20777.618455292,20778.60950225,9,20777.684404,20777.750968958,20778.623301458,20780.350015875,1,0.991046958002698
120,38,5,categorization,0,bathroom,SHINEd_sun_amzlamotzwfkwjco.tif,37,0.0666666666666667,0.0666666666666667,0.766666666666667,20780.367609167,20781.173391583,13,20780.43464825,20780.500472875,20781.18973125,20781.949735375,1,0.80578241600233
120,39,5,categorization,0,bathroom,SHINEd_sun_azqyogdvyhahyram.tif,60,0.0666666666666667,0.0666666666666667,1.85,20781.955073,20783.076954625,13,20782.016769292,20782.077726417,20783.096262417,20784.939642458,1,1.12188162500024
120,40,5,categorization,0,bathroom,SHINEd_labelme_sfxiulhjbhlyiyt.tif,11,0.0666666666666667,0.0666666666666667,0.966666666666667,20784.956295625,20786.564776,13,20785.024122708,20785.088521625,20786.574722625,20787.534728292,1,1.60848037499818
120,41,5,categorization,0,bathroom,SHINEd_sun_awnqiikzaispgmwo.tif,56,0.0666666666666667,0.0666666666666667,1.06666666666667,20787.539579292,20788.300745458,13,20787.6013385,20787.662262,20788.314133667,20789.3741735,1,0.761166166001203
120,42,5,categorization,0,kitchen,SHINEd_sun_abftihopvusyfakt.tif,71,0.0666666666666667,0.0666666666666667,1.38333333333333,20789.385654417,20790.590461417,13,20789.451306583,20789.515520583,20790.605251833,20791.981974375,0,1.20480699999825
120,43,5,categorization,0,kitchen,SHINEd_sun_avszsnwsbuqfgzbn.tif,105,0.0666666666666667,0.0666666666666667,0.766666666666667,20791.992359167,20792.82954275,9,20792.059725625,20792.124791708,20792.848005958,20793.608054917,1,0.837183583000296
120,44,5,categorization,0,bathroom,SHINEd_sun_ajlawzvmubibwbpy.tif,30,0.0666666666666667,0.0666666666666667,0.866666666666667,20793.624381625,20794.588926458,13,20793.69109725,20793.74897225,20794.601411417,20795.461417167,1,0.964544833001128
120,45,5,categorization,0,bathroom,SHINEd_sun_aavhrsfjbserjtht.tif,13,0.0666666666666667,0.0666666666666667,1.25,20795.466620125,20796.205035667,13,20795.528455917,20795.589107833,20796.224724375,20797.468088,1,0.738415542000439
120,46,5,categorization,0,kitchen,SHINEd_sun_auticobqsbwgoppi.tif,104,0.0666666666666667,0.0666666666666667,1.03333333333333,20797.485072208,20798.451896042,13,20797.551516875,20797.617533417,20798.473956083,20799.500658875,0,0.966823833998205
120,47,5,categorization,0,kitchen,SHINEd_sun_agubuxuukhzyzpdp.tif,88,0.0666666666666667,0.0666666666666667,0.783333333333333,20799.516288958,20801.636916542,13,20799.58095375,20799.64733425,20801.650211667,20802.426882125,0,2.12062758400134
120,48,5,categorization,0,bathroom,SHINEd_sun_abapwbhyhkfixyex.tif,14,0.0666666666666667,0.0666666666666667,0.7,20802.432023708,20803.244233917,9,20802.493751458,20802.55469925,20803.256677542,20803.950014333,0,0.812210209001933
120,49,5,categorization,0,bathroom,SHINEd_sun_aapitsgbtktqubfy.tif,12,0.0666666666666667,0.0666666666666667,1.75,20803.95482875,20804.69310175,13,20804.016529208,20804.077610042,20804.696216542,20806.4395915,1,0.738272999999026
120,50,5,categorization,0,kitchen,SHINEd_sun_aadbddgrdsjugojn.tif,64,0.0666666666666667,0.0666666666666667,1.36666666666667,20806.456286958,20808.084416667,9,20806.524516167,20806.588728667,20808.091060833,20809.451098792,1,1.62812970899904
