sub_num,trial,block,task,is_practice,category,image,texture,duration,mask_dur,jitter,stim_time,time_of_resp,trial_response,mask_time,fix_time,jit_onset,trial_end,trial_accuracy,RT
120,1,11,categorization,0,kitchen,SHINEd_sun_amjjdeyrggfqgmom.tif,99,0.0666666666666667,0.0666666666666667,0.8,1486336.7241054,1486337.9856699,70,1486336.795266,1486336.8591327,1486337.9912146,1486338.7895516,NaN,NaN
120,2,11,categorization,0,bathroom,SHINEd_sun_ausgutylgojavyoq.tif,53,0.0666666666666667,0.0666666666666667,1.13333333333333,1486338.7956008,1486339.4816007,74,1486338.8666864,1486338.9308221,1486339.4877653,1486340.6194356,NaN,NaN
120,3,11,categorization,0,bathroom,SHINEd_sun_aclfzgynxzxlbepz.tif,19,0.0666666666666667,0.0666666666666667,1.05,1486340.6254863,1486341.2862399,74,1486340.6970259,1486340.7609154,1486341.2915767,1486342.3399209,NaN,NaN
120,4,11,categorization,0,kitchen,SHINEd_sun_ahljzhgcdpomplvg.tif,91,0.0666666666666667,0.0666666666666667,1.05,1486342.3460621,1486343.099414,70,1486342.4173022,1486342.481322,1486343.1060387,1486344.1543768,NaN,NaN
120,5,11,categorization,0,kitchen,SHINEd_sun_ajcbwwvdlsvjyzje.tif,95,0.0666666666666667,0.0666666666666667,1.63333333333333,1486344.1604946,1486344.8693857,70,1486344.2316498,1486344.295968,1486344.8756494,1486346.5073215,NaN,NaN
120,6,11,categorization,0,bathroom,SHINEd_sun_awnqiikzaispgmwo.tif,56,0.0666666666666667,0.0666666666666667,0.85,1486346.513632,1486347.228619,74,1486346.5849552,1486346.6486545,1486347.2346886,1486348.0830258,NaN,NaN
120,7,11,categorization,0,bathroom,SHINEd_sun_ajlawzvmubibwbpy.tif,30,0.0666666666666667,0.0666666666666667,1.5,1486348.0893577,1486348.9870815,74,1486348.1600945,1486348.2243465,1486348.9930079,1486350.4913452,NaN,NaN
120,8,11,categorization,0,bathroom,SHINEd_sun_alotolagknyrgtsk.tif,35,0.0666666666666667,0.0666666666666667,1.46666666666667,1486350.497932,1486351.2177277,70,1486350.5689824,1486350.6340325,1486351.2239325,1486352.6889373,NaN,NaN
120,9,11,categorization,0,kitchen,SHINEd_sun_ahywdevtimnqcsln.tif,94,0.0666666666666667,0.0666666666666667,1.06666666666667,1486352.6952134,1486353.5007837,70,1486352.766173,1486352.8307919,1486353.5073031,1486354.5723072,NaN,NaN
120,10,11,categorization,0,kitchen,SHINEd_sun_ajkqhtgcbgpcwrwn.tif,96,0.0666666666666667,0.0666666666666667,0.8,1486354.578746,1486355.6498072,70,1486354.6504341,1486354.7143164,1486355.6554635,1486356.4538005,NaN,NaN
120,11,11,categorization,0,bathroom,SHINEd_sun_afcoljnjfoxjtgja.tif,20,0.0666666666666667,0.0666666666666667,1.41666666666667,1486356.4599402,1486357.3208795,74,1486356.5312992,1486356.5954898,1486357.3264042,1486358.7414085,NaN,NaN
120,12,11,categorization,0,bathroom,SHINEd_sun_aghyqhbptboemmoq.tif,23,0.0666666666666667,0.0666666666666667,1.71666666666667,1486358.7491719,1486359.4650552,74,1486358.8208935,1486358.8842261,1486359.4707394,1486361.1857442,NaN,NaN
120,13,11,categorization,0,bathroom,SHINEd_sun_agyqfjcfkdcydepw.tif,25,0.0666666666666667,0.0666666666666667,0.833333333333333,1486361.1916355,1486361.9353716,74,1486361.2643513,1486361.3273728,1486361.9409245,1486362.7725948,NaN,NaN
120,14,11,categorization,0,bathroom,SHINEd_sun_aapitsgbtktqubfy.tif,12,0.0666666666666667,0.0666666666666667,0.783333333333333,1486362.778661,1486363.7563348,74,1486362.8501376,1486362.9141426,1486363.7624258,1486364.5440965,NaN,NaN
120,15,11,categorization,0,kitchen,SHINEd_sun_abrcnpqqhmjwekyf.tif,73,0.0666666666666667,0.0666666666666667,0.866666666666667,1486364.5516198,1486365.7846252,70,1486364.6241653,1486364.6866358,1486365.7905607,1486366.6555651,NaN,NaN
120,16,11,categorization,0,bathroom,SHINEd_sun_axyrejkiiaqiurjk.tif,59,0.0666666666666667,0.0666666666666667,1.08333333333333,1486366.6623447,1486367.7215861,74,1486366.7330306,1486366.7974731,1486367.7269707,1486368.8086424,NaN,NaN
120,17,11,categorization,0,kitchen,SHINEd_sun_akchetnepxlcxhsu.tif,97,0.0666666666666667,0.0666666666666667,1.1,1486368.8147862,1486370.5252207,74,1486368.8857977,1486368.9516332,1486370.5308002,1486371.629139,NaN,NaN
120,18,11,categorization,0,kitchen,SHINEd_sun_axyyrmzcupyhlivc.tif,106,0.0666666666666667,0.0666666666666667,1.5,1486371.635128,1486372.7857785,70,1486371.7059104,1486371.7706769,1486372.7927871,1486374.2911242,NaN,NaN
120,19,11,categorization,0,bathroom,SHINEd_sun_aljolscmmzydegqp.tif,33,0.0666666666666667,0.0666666666666667,0.833333333333333,1486374.2975538,1486375.1597048,70,1486374.368797,1486374.4327859,1486375.1651971,1486375.9968674,NaN,NaN
120,20,11,categorization,0,kitchen,SHINEd_sun_aapllqyqlykszopd.tif,66,0.0666666666666667,0.0666666666666667,1.76666666666667,1486376.0024204,1486376.8386839,70,1486376.0729126,1486376.137654,1486376.8456091,1486378.6106138,NaN,NaN
120,21,11,categorization,0,kitchen,SHINEd_sun_aggjlwcdjsjcaemh.tif,86,0.0666666666666667,0.0666666666666667,1.18333333333333,1486378.6182172,1486379.4377464,70,1486378.6894398,1486378.7536814,1486379.443622,1486380.6252922,NaN,NaN
120,22,11,categorization,0,bathroom,SHINEd_sun_ahijqszoswveeyji.tif,28,0.0666666666666667,0.0666666666666667,0.933333333333333,1486380.6314441,1486381.4395542,74,1486380.7024451,1486380.7683266,1486381.4449805,1486382.3766508,NaN,NaN
120,23,11,categorization,0,bathroom,SHINEd_sun_apmqjbnwghzuhhzh.tif,46,0.0666666666666667,0.0666666666666667,0.716666666666667,1486382.3842482,1486383.1207295,74,1486382.4553502,1486382.5193161,1486383.1269465,1486383.8419597,NaN,NaN
120,24,11,categorization,0,kitchen,SHINEd_sun_aadbddgrdsjugojn.tif,64,0.0666666666666667,0.0666666666666667,1.25,1486383.8482026,1486384.6580476,70,1486383.9192273,1486383.9845526,1486384.6634628,1486385.9118003,NaN,NaN
120,25,11,categorization,0,bathroom,SHINEd_sun_aavhrsfjbserjtht.tif,13,0.0666666666666667,0.0666666666666667,0.866666666666667,1486385.9190367,1486386.6105657,74,1486385.9903981,1486386.0546006,1486386.6162046,1486387.4812082,NaN,NaN
120,26,11,categorization,0,bathroom,SHINEd_sun_axxbkopsgyouuebh.tif,58,0.0666666666666667,0.0666666666666667,1.08333333333333,1486387.487587,1486388.2299078,74,1486387.5589252,1486387.6242055,1486388.2351626,1486389.3168345,NaN,NaN
120,27,11,categorization,0,bathroom,SHINEd_labelme_sfxiulhjbhlyiyt.tif,11,0.0666666666666667,0.0666666666666667,1.9,1486389.3230425,1486390.1306227,74,1486389.3943389,1486389.458381,1486390.1367145,1486392.0350513,NaN,NaN
120,28,11,categorization,0,kitchen,SHINEd_labelme_kxvouciolcpqplr.tif,62,0.0666666666666667,0.0666666666666667,0.866666666666667,1486392.0411838,1486392.9643467,70,1486392.1136957,1486392.1768747,1486392.9696076,1486393.8346118,NaN,NaN
120,29,11,categorization,0,bathroom,SHINEd_sun_aofnryafpsjimzsb.tif,40,0.0666666666666667,0.0666666666666667,1.05,1486393.8414644,1486394.58849,74,1486393.9130231,1486393.9785833,1486394.5937154,1486395.6420525,NaN,NaN
120,30,11,categorization,0,kitchen,SHINEd_sun_abpwyqmlzafvklqo.tif,72,0.0666666666666667,0.0666666666666667,1.65,1486395.6483761,1486396.4655253,70,1486395.7205701,1486395.7844208,1486396.4716437,1486398.1199829,NaN,NaN
120,31,11,categorization,0,kitchen,SHINEd_sun_abdxkyyxwfskuaqb.tif,70,0.0666666666666667,0.0666666666666667,0.716666666666667,1486398.1268473,1486399.0250968,70,1486398.1977177,1486398.2623266,1486399.0303708,1486399.7453764,NaN,NaN
120,32,11,categorization,0,bathroom,SHINEd_sun_aggnnqpdorgxpvce.tif,21,0.0666666666666667,0.0666666666666667,1.36666666666667,1486399.7514832,1486400.5476189,74,1486399.8224614,1486399.8865579,1486400.552798,1486401.9178098,NaN,NaN
120,33,11,categorization,0,kitchen,SHINEd_sun_acgtpgfybqjmzeyw.tif,75,0.0666666666666667,0.0666666666666667,1.11666666666667,1486401.9241761,1486402.6181744,70,1486401.995174,1486402.0594564,1486402.6240568,1486403.7390617,NaN,NaN
120,34,11,categorization,0,bathroom,SHINEd_sun_apjevzvycyhuqghb.tif,43,0.0666666666666667,0.0666666666666667,0.983333333333333,1486403.7466501,1486405.0078416,70,1486403.8180786,1486403.8816534,1486405.013369,1486405.995041,NaN,NaN
120,35,11,categorization,0,kitchen,SHINEd_sun_ahdycvpopffkzzsu.tif,90,0.0666666666666667,0.0666666666666667,1.15,1486406.0013537,1486406.9519641,70,1486406.0734474,1486406.1367382,1486406.9573798,1486408.1057168,NaN,NaN
120,36,11,categorization,0,kitchen,SHINEd_sun_abdenxonkemggwsq.tif,69,0.0666666666666667,0.0666666666666667,1.08333333333333,1486408.1119897,1486408.9541396,70,1486408.1828457,1486408.2472424,1486408.9594725,1486410.0411427,NaN,NaN
120,37,11,categorization,0,bathroom,SHINEd_sun_aoybiabnpadelefl.tif,41,0.0666666666666667,0.0666666666666667,1.21666666666667,1486410.046893,1486410.8334641,74,1486410.1185023,1486410.1826934,1486410.838879,1486412.0538828,NaN,NaN
120,38,11,categorization,0,kitchen,SHINEd_sun_aexklacwqwezaorf.tif,84,0.0666666666666667,0.0666666666666667,0.783333333333333,1486412.0602278,1486412.9328754,70,1486412.131712,1486412.1964067,1486412.9389718,1486413.7206424,NaN,NaN
120,39,11,categorization,0,kitchen,SHINEd_sun_agorklincwxrdtga.tif,87,0.0666666666666667,0.0666666666666667,1,1486413.7271869,1486414.580482,70,1486413.7982337,1486413.8628306,1486414.5859082,1486415.5842465,NaN,NaN
120,40,11,categorization,0,kitchen,SHINEd_labelme_rykdqxenmhulbdn.tif,63,0.0666666666666667,0.0666666666666667,1.83333333333333,1486415.5906509,1486416.3555329,70,1486415.6621114,1486415.7262308,1486416.3611075,1486418.1927788,NaN,NaN
120,41,11,categorization,0,kitchen,SHINEd_sun_acfmftudsenhrfhy.tif,74,0.0666666666666667,0.0666666666666667,1.15,1486418.1995383,1486418.9745194,70,1486418.2705908,1486418.3349137,1486418.9799341,1486420.1282711,NaN,NaN
120,42,11,categorization,0,kitchen,SHINEd_sun_akcjzhbbjlbogpdi.tif,98,0.0666666666666667,0.0666666666666667,1.33333333333333,1486420.1349663,1486421.3569592,70,1486420.2061972,1486420.2705113,1486421.3625161,1486422.6941883,NaN,NaN
120,43,11,categorization,0,bathroom,SHINEd_sun_atstyziqcmkahyxk.tif,51,0.0666666666666667,0.0666666666666667,1.11666666666667,1486422.7002387,1486423.3922206,74,1486422.7717353,1486422.8374911,1486423.3990384,1486424.5140431,NaN,NaN
120,44,11,categorization,0,bathroom,SHINEd_sun_ambriybtogmepttm.tif,36,0.0666666666666667,0.0666666666666667,1.91666666666667,1486424.5206059,1486425.4144684,74,1486424.5913007,1486424.6559665,1486425.4207558,1486427.33576,NaN,NaN
120,45,11,categorization,0,bathroom,SHINEd_sun_anhioqovhscjqqwb.tif,38,0.0666666666666667,0.0666666666666667,0.783333333333333,1486427.341792,1486428.0145669,74,1486427.4128785,1486427.4772863,1486428.0206074,1486428.8022779,NaN,NaN
120,46,11,categorization,0,bathroom,SHINEd_sun_acegryoqftbzowsg.tif,17,0.0666666666666667,0.0666666666666667,1,1486428.8085659,1486429.6770623,70,1486428.880064,1486428.9442142,1486429.6825486,1486430.6808876,NaN,NaN
120,47,11,categorization,0,kitchen,SHINEd_sun_auticobqsbwgoppi.tif,103,0.0666666666666667,0.0666666666666667,1.38333333333333,1486430.6865312,1486431.4589737,70,1486430.7570591,1486430.8211805,1486431.4650848,1486432.8467556,NaN,NaN
120,48,11,categorization,0,kitchen,SHINEd_sun_abftihopvusyfakt.tif,71,0.0666666666666667,0.0666666666666667,1.55,1486432.8522325,1486436.513342,70,1486432.9228534,1486432.9876378,1486436.5192615,1486438.0675996,NaN,NaN
120,49,11,categorization,0,kitchen,SHINEd_sun_aaxxjlsuzvqlgylf.tif,68,0.0666666666666667,0.0666666666666667,1.03333333333333,1486438.0736258,1486439.0082307,70,1486438.1444959,1486438.2099984,1486439.0137887,1486440.0454592,NaN,NaN
120,50,11,categorization,0,kitchen,SHINEd_sun_acwjdupvyjsugpay.tif,76,0.0666666666666667,0.0666666666666667,1.46666666666667,1486440.0511009,1486440.7947863,70,1486440.1218385,1486440.1867755,1486440.8001531,1486442.2651578,NaN,NaN
