sub_num,trial,block,task,is_practice,category,image,texture,duration,mask_dur,jitter,stim_time,time_of_resp,trial_response,mask_time,fix_time,jit_onset,trial_end,trial_accuracy,RT
120,1,5,categorization,0,bathroom,SHINEd_sun_auzqhkafidnkrwmo.tif,54,0.0666666666666667,0.0666666666666667,1.7,1485630.839396,1485631.5481309,74,1485630.910203,1485630.9744871,1485631.5535404,1485633.2518785,NaN,NaN
120,2,5,categorization,0,bathroom,SHINEd_sun_apkruvsevgegsdwp.tif,44,0.0666666666666667,0.0666666666666667,1.81666666666667,1485633.2596108,1485634.1726687,74,1485633.3308969,1485633.3961671,1485634.1783003,1485635.9933039,NaN,NaN
120,3,5,categorization,0,kitchen,SHINEd_labelme_rykdqxenmhulbdn.tif,63,0.0666666666666667,0.0666666666666667,1.23333333333333,1485636.0005657,1485636.152164,70,1485636.0719974,1485636.1371087,1485636.1630967,1485637.394767,NaN,NaN
120,4,5,categorization,0,bathroom,SHINEd_sun_alkosphxlxwjwgjd.tif,34,0.0666666666666667,0.0666666666666667,1.4,1485637.4006349,1485638.2127409,74,1485637.4712788,1485637.5357108,1485638.2186292,1485639.6169681,NaN,NaN
120,5,5,categorization,0,kitchen,SHINEd_sun_agzzivivdpnawacl.tif,89,0.0666666666666667,0.0666666666666667,1.03333333333333,1485639.6233476,1485640.2782025,74,1485639.6948471,1485639.7585644,1485640.2844155,1485641.3160871,NaN,NaN
120,6,5,categorization,0,bathroom,SHINEd_sun_axldvoqbuvuggfmq.tif,57,0.0666666666666667,0.0666666666666667,1.38333333333333,1485641.3225937,1485642.0093623,74,1485641.3951136,1485641.4580122,1485642.0153856,1485643.3970561,NaN,NaN
120,7,5,categorization,0,kitchen,SHINEd_sun_abdenxonkemggwsq.tif,69,0.0666666666666667,0.0666666666666667,2,1485643.4048533,1485644.0623699,70,1485643.4756208,1485643.5402732,1485644.0676511,1485646.0659888,NaN,NaN
120,8,5,categorization,0,bathroom,SHINEd_sun_aggnnqpdorgxpvce.tif,21,0.0666666666666667,0.0666666666666667,1.85,1485646.0718688,1485646.8072865,74,1485646.1433286,1485646.2085168,1485646.813294,1485648.6616325,NaN,NaN
120,9,5,categorization,0,bathroom,SHINEd_sun_axxbkopsgyouuebh.tif,58,0.0666666666666667,0.0666666666666667,0.816666666666667,1485648.6678121,1485649.2934906,74,1485648.7386881,1485648.8028282,1485649.2989853,1485650.1139894,NaN,NaN
120,10,5,categorization,0,kitchen,SHINEd_sun_ayqymgxqhxxiykiw.tif,109,0.0666666666666667,0.0666666666666667,1.85,1485650.120135,1485650.7673316,70,1485650.1912069,1485650.2557451,1485650.7727684,1485652.6211066,NaN,NaN
120,11,5,categorization,0,bathroom,SHINEd_sun_acgyywnybuveqsro.tif,18,0.0666666666666667,0.0666666666666667,0.733333333333333,1485652.6271006,1485653.2315139,74,1485652.6986169,1485652.764247,1485653.2378502,1485653.9695215,NaN,NaN
120,12,5,categorization,0,kitchen,SHINEd_sun_ahspylgoovwmwvgk.tif,93,0.0666666666666667,0.0666666666666667,0.716666666666667,1485653.9754354,1485654.6447669,70,1485654.046171,1485654.1106355,1485654.6501776,1485655.3651819,NaN,NaN
120,13,5,categorization,0,bathroom,SHINEd_sun_aunuadmjocsddsrl.tif,52,0.0666666666666667,0.0666666666666667,0.833333333333333,1485655.3710485,1485656.046551,74,1485655.4417412,1485655.5068757,1485656.0527912,1485656.8844626,NaN,NaN
120,14,5,categorization,0,bathroom,SHINEd_sun_ahijqszoswveeyji.tif,28,0.0666666666666667,0.0666666666666667,0.95,1485656.8903007,1485657.6113892,74,1485656.961027,1485657.0253878,1485657.6176797,1485658.5660178,NaN,NaN
120,15,5,categorization,0,bathroom,SHINEd_sun_ahcvzmoyaycdoftf.tif,27,0.0666666666666667,0.0666666666666667,1.96666666666667,1485658.5722347,1485659.1401142,74,1485658.643112,1485658.7091628,1485659.1461547,1485661.1111581,NaN,NaN
120,16,5,categorization,0,kitchen,SHINEd_sun_aggjlwcdjsjcaemh.tif,86,0.0666666666666667,0.0666666666666667,1.86666666666667,1485661.117296,1485661.7709471,70,1485661.1885736,1485661.2527162,1485661.776446,1485663.6414494,NaN,NaN
120,17,5,categorization,0,bathroom,SHINEd_sun_avhrdrntsqrjzccq.tif,55,0.0666666666666667,0.0666666666666667,1.51666666666667,1485663.647377,1485664.6812758,74,1485663.7181442,1485663.7828545,1485664.6875322,1485666.2025376,NaN,NaN
120,18,5,categorization,0,bathroom,SHINEd_sun_acegryoqftbzowsg.tif,17,0.0666666666666667,0.0666666666666667,1.3,1485666.2093845,1485667.0166243,74,1485666.2801122,1485666.3451544,1485667.0227165,1485668.3210639,NaN,NaN
120,19,5,categorization,0,bathroom,SHINEd_sun_aspsyogrekjtfozg.tif,50,0.0666666666666667,0.0666666666666667,1.91666666666667,1485668.3272831,1485668.9416566,74,1485668.3981363,1485668.4624812,1485668.9474236,1485670.8624269,NaN,NaN
120,20,5,categorization,0,bathroom,SHINEd_sun_agguqiubmwhqqunb.tif,22,0.0666666666666667,0.0666666666666667,1.23333333333333,1485670.8688629,1485671.7167233,74,1485670.9407785,1485671.0061003,1485671.7220456,1485672.9537158,NaN,NaN
120,21,5,categorization,0,bathroom,SHINEd_sun_aofnryafpsjimzsb.tif,40,0.0666666666666667,0.0666666666666667,0.866666666666667,1485672.9601311,1485673.5568053,74,1485673.0311405,1485673.0954654,1485673.5629077,1485674.4279116,NaN,NaN
120,22,5,categorization,0,kitchen,SHINEd_sun_ahpczsiumwwocjkv.tif,92,0.0666666666666667,0.0666666666666667,0.8,1485674.4339965,1485675.1900315,74,1485674.5050588,1485674.5694341,1485675.1956296,1485675.9939672,NaN,NaN
120,23,5,categorization,0,kitchen,SHINEd_sun_aypmqwcualkenuoe.tif,108,0.0666666666666667,0.0666666666666667,1.51666666666667,1485675.9999255,1485676.8220125,70,1485676.0706812,1485676.1351076,1485676.8281698,1485678.3431747,NaN,NaN
120,24,5,categorization,0,kitchen,SHINEd_sun_aunzlwrbjumxhwdj.tif,102,0.0666666666666667,0.0666666666666667,1.18333333333333,1485678.3493472,1485679.1781449,70,1485678.420111,1485678.4859709,1485679.1841221,1485680.3657933,NaN,NaN
120,25,5,categorization,0,kitchen,SHINEd_sun_amjjdeyrggfqgmom.tif,99,0.0666666666666667,0.0666666666666667,1.6,1485680.3719202,1485681.079272,70,1485680.4439398,1485680.5076584,1485681.0848309,1485682.68317,NaN,NaN
120,26,5,categorization,0,kitchen,SHINEd_sun_azmutvzbxypaceni.tif,110,0.0666666666666667,0.0666666666666667,1.56666666666667,1485682.690885,1485683.3601554,70,1485682.762233,1485682.8263346,1485683.3664871,1485684.9314907,NaN,NaN
120,27,5,categorization,0,kitchen,SHINEd_sun_akcjzhbbjlbogpdi.tif,98,0.0666666666666667,0.0666666666666667,1.36666666666667,1485684.9388132,1485685.6937587,70,1485685.0109179,1485685.0741172,1485685.6998277,1485687.0648326,NaN,NaN
120,28,5,categorization,0,kitchen,SHINEd_sun_acgtpgfybqjmzeyw.tif,75,0.0666666666666667,0.0666666666666667,1.53333333333333,1485687.0714296,1485687.707517,70,1485687.1422666,1485687.2071012,1485687.713128,1485689.2447979,NaN,NaN
120,29,5,categorization,0,kitchen,SHINEd_sun_akchetnepxlcxhsu.tif,97,0.0666666666666667,0.0666666666666667,1.4,1485689.2507793,1485689.888121,74,1485689.3215037,1485689.3861477,1485689.8938282,1485691.2921658,NaN,NaN
120,30,5,categorization,0,kitchen,SHINEd_labelme_kxvouciolcpqplr.tif,62,0.0666666666666667,0.0666666666666667,1.06666666666667,1485691.2990682,1485691.9769299,70,1485691.3700529,1485691.4343581,1485691.9833241,1485693.0483307,NaN,NaN
120,31,5,categorization,0,bathroom,SHINEd_sun_apjevzvycyhuqghb.tif,43,0.0666666666666667,0.0666666666666667,1.63333333333333,1485693.0560316,1485694.1827662,70,1485693.1273051,1485693.1923077,1485694.1881094,1485695.8197817,NaN,NaN
120,32,5,categorization,0,bathroom,SHINEd_sun_apkxzenqapsujocq.tif,45,0.0666666666666667,0.0666666666666667,1.8,1485695.8276446,1485696.4895437,74,1485695.8983518,1485695.9624752,1485696.495573,1485698.2939095,NaN,NaN
120,33,5,categorization,0,bathroom,SHINEd_sun_apmqjbnwghzuhhzh.tif,46,0.0666666666666667,0.0666666666666667,1.53333333333333,1485698.2997795,1485699.0308142,74,1485698.3706975,1485698.4352942,1485699.0362174,1485700.5678886,NaN,NaN
120,34,5,categorization,0,bathroom,SHINEd_sun_aleqenyvunhactkl.tif,32,0.0666666666666667,0.0666666666666667,0.766666666666667,1485700.5737641,1485701.1914581,74,1485700.6446853,1485700.7087847,1485701.1978297,1485701.9628345,NaN,NaN
120,35,5,categorization,0,bathroom,SHINEd_sun_akiytfaagpdsphgz.tif,31,0.0666666666666667,0.0666666666666667,1.86666666666667,1485701.9690354,1485702.7506543,74,1485702.0398454,1485702.104087,1485702.7561161,1485704.6211196,NaN,NaN
120,36,5,categorization,0,bathroom,SHINEd_sun_aqrpegblszgcoujh.tif,48,0.0666666666666667,0.0666666666666667,1.13333333333333,1485704.6271265,1485705.2028361,74,1485704.698649,1485704.7621682,1485705.2082085,1485706.3398783,NaN,NaN
120,37,5,categorization,0,kitchen,SHINEd_sun_auticobqsbwgoppi.tif,103,0.0666666666666667,0.0666666666666667,1.73333333333333,1485706.3461147,1485707.0430757,70,1485706.4174615,1485706.4814805,1485707.048949,1485708.7806213,NaN,NaN
120,38,5,categorization,0,bathroom,SHINEd_sun_amzlamotzwfkwjco.tif,37,0.0666666666666667,0.0666666666666667,0.766666666666667,1485708.7865856,1485709.7060077,74,1485708.8579059,1485708.9227866,1485709.7120964,1485710.4771013,NaN,NaN
120,39,5,categorization,0,bathroom,SHINEd_sun_azqyogdvyhahyram.tif,60,0.0666666666666667,0.0666666666666667,1.85,1485710.4829991,1485711.1034506,74,1485710.5542524,1485710.6184403,1485711.1092008,1485712.9575391,NaN,NaN
120,40,5,categorization,0,bathroom,SHINEd_labelme_sfxiulhjbhlyiyt.tif,11,0.0666666666666667,0.0666666666666667,0.966666666666667,1485712.9632453,1485713.5807427,73,1485713.0345281,1485713.0980995,1485714.623854,1485715.5888573,NaN,NaN
120,41,5,categorization,0,bathroom,SHINEd_sun_awnqiikzaispgmwo.tif,56,0.0666666666666667,0.0666666666666667,1.06666666666667,1485715.5952072,1485716.3349703,74,1485715.6661223,1485715.7304178,1485716.3406771,1485717.4056812,NaN,NaN
120,42,5,categorization,0,kitchen,SHINEd_sun_abftihopvusyfakt.tif,71,0.0666666666666667,0.0666666666666667,1.38333333333333,1485717.4118145,1485718.1427032,70,1485717.4825759,1485717.5469789,1485718.1490191,1485719.5306911,NaN,NaN
120,43,5,categorization,0,kitchen,SHINEd_sun_awcpdzzznmweyyhv.tif,105,0.0666666666666667,0.0666666666666667,0.766666666666667,1485719.5365033,1485720.3610689,70,1485719.6078859,1485719.6720196,1485720.3674995,1485721.1325079,NaN,NaN
120,44,5,categorization,0,bathroom,SHINEd_sun_ajlawzvmubibwbpy.tif,30,0.0666666666666667,0.0666666666666667,0.866666666666667,1485721.1384297,1485721.9842938,70,1485721.2093555,1485721.2737384,1485721.9897162,1485722.8547198,NaN,NaN
120,45,5,categorization,0,bathroom,SHINEd_sun_aavhrsfjbserjtht.tif,13,0.0666666666666667,0.0666666666666667,1.25,1485722.8610753,1485723.526362,74,1485722.9320601,1485722.997136,1485723.5318724,1485724.7802096,NaN,NaN
120,46,5,categorization,0,kitchen,SHINEd_sun_avszsnwsbuqfgzbn.tif,104,0.0666666666666667,0.0666666666666667,1.03333333333333,1485724.7863663,1485725.4424914,70,1485724.8571937,1485724.9208789,1485725.4485128,1485726.4801837,NaN,NaN
120,47,5,categorization,0,kitchen,SHINEd_sun_agubuxuukhzyzpdp.tif,88,0.0666666666666667,0.0666666666666667,0.783333333333333,1485726.4859642,1485727.1575135,70,1485726.5576313,1485726.6214051,1485727.1630137,1485727.944686,NaN,NaN
120,48,5,categorization,0,bathroom,SHINEd_sun_abapwbhyhkfixyex.tif,14,0.0666666666666667,0.0666666666666667,0.7,1485727.9508508,1485728.5764359,74,1485728.0218944,1485728.0861117,1485728.5824444,1485729.2807814,NaN,NaN
120,49,5,categorization,0,bathroom,SHINEd_sun_aapitsgbtktqubfy.tif,12,0.0666666666666667,0.0666666666666667,1.75,1485729.2865915,1485729.9259987,74,1485729.3573533,1485729.4216951,1485729.9323071,1485731.6806443,NaN,NaN
120,50,5,categorization,0,kitchen,SHINEd_sun_aadbddgrdsjugojn.tif,64,0.0666666666666667,0.0666666666666667,1.36666666666667,1485731.6870443,1485732.3817201,70,1485731.7580688,1485731.8226659,1485732.3880466,1485733.7530506,NaN,NaN
