sub_num,trial,block,task,is_practice,category,image,texture,duration,mask_dur,jitter,stim_time,time_of_resp,trial_response,mask_time,fix_time,jit_onset,trial_end,trial_accuracy,RT
120,1,0,categorization,1,bathroom,SHINEd_bathroom_practice2.tif,112,0.0666666666666667,0.0666666666666667,1.21666666666667,19879.988910417,19887.753744,13,19880.054589625,19880.11562975,19887.786709,19888.996917167,1,7.76483358300175
120,2,0,categorization,1,bathroom,SHINEd_bathroom_practice4.tif,114,0.0666666666666667,0.0666666666666667,1.36666666666667,19889.04454225,19891.008233,13,19889.117169625,19889.178408625,19891.031495625,19892.39168525,1,1.96369074999893
120,3,0,categorization,1,kitchen,SHINEd_kitchen_practice2.tif,117,0.0666666666666667,0.0666666666666667,1.85,19892.443617625,19893.548860458,9,19892.517877375,19892.577833125,19893.573484375,19895.416994625,1,1.10524283300037
120,4,0,categorization,1,bathroom,SHINEd_bathroom_practice3.tif,113,0.0666666666666667,0.0666666666666667,1.55,19895.443030875,19897.567795792,13,19895.512838042,19895.575982542,19897.578529333,19899.122039042,1,2.12476491699999
120,5,0,categorization,1,kitchen,SHINEd_kitchen_practice4.tif,119,0.0666666666666667,0.0666666666666667,1.48333333333333,19899.154367458,19900.458556792,9,19899.227556583,19899.288300167,19900.50316275,19901.980925708,1,1.30418933400142
120,6,0,categorization,1,bathroom,SHINEd_bathroom_practice5.tif,115,0.0666666666666667,0.0666666666666667,1.15,19902.002343375,19903.501314958,9,19902.070802542,19902.135746333,19903.526356458,19904.669848583,0,1.49897158300155
120,7,0,categorization,1,kitchen,SHINEd_kitchen_practice1.tif,116,0.0666666666666667,0.0666666666666667,0.733333333333333,19904.680031375,19906.162730292,9,19904.747532958,19904.813507167,19906.190312167,19906.916981917,1,1.48269891699965
120,8,0,categorization,1,bathroom,SHINEd_bathroom_practice1.tif,111,0.0666666666666667,0.0666666666666667,1.6,19906.922212208,19907.984614708,13,19906.984066125,19907.044953,19907.99693675,19909.590310292,1,1.06240249999973
120,9,0,categorization,1,kitchen,SHINEd_kitchen_practice3.tif,118,0.0666666666666667,0.0666666666666667,0.716666666666667,19909.609753458,19910.448825208,9,19909.678403958,19909.742418292,19910.464835583,19911.174843583,1,0.839071750000585
120,10,0,categorization,1,kitchen,SHINEd_kitchen_practice5.tif,120,0.0666666666666667,0.0666666666666667,1.21666666666667,19911.180757667,19913.192025292,9,19911.242465792,19911.303582958,19913.205893458,19914.415946375,1,2.01126762499916
120,1,1,categorization,0,kitchen,SHINEd_sun_aeqdocilnnpuvuhx.tif,83,0.0666666666666667,0.0666666666666667,1.23333333333333,19981.24591725,19984.168430875,9,19981.308024708,19981.368523292,19984.1875495,19985.414265,1,2.92251362500247
120,2,1,categorization,0,kitchen,SHINEd_sun_aehawpgmrlhlvcow.tif,81,0.0666666666666667,0.0666666666666667,0.783333333333333,19985.431001,19986.786567125,9,19985.49912675,19985.562340167,19986.803315292,19987.579986917,1,1.35556612499931
120,3,1,categorization,0,kitchen,SHINEd_sun_abdenxonkemggwsq.tif,69,0.0666666666666667,0.0666666666666667,0.75,19987.58577825,19988.727751208,9,19987.647572,19987.70844525,19988.743955625,19989.487292958,1,1.14197295800113
120,4,1,categorization,0,kitchen,SHINEd_sun_aixorpehvfykdynp.tif,95,0.0666666666666667,0.0666666666666667,1.23333333333333,19989.492821583,19990.64003425,9,19989.554553708,19989.615530375,19990.651325542,19991.878034417,1,1.1472126669978
120,5,1,categorization,0,bathroom,SHINEd_sun_awnqiikzaispgmwo.tif,56,0.0666666666666667,0.0666666666666667,1.13333333333333,19991.894731667,19994.0402265,9,19991.960219292,19992.025837958,19994.044827042,19995.171538125,0,2.14549483300289
120,6,1,categorization,0,kitchen,SHINEd_labelme_brsyyvweiuaazfr.tif,61,0.0666666666666667,0.0666666666666667,0.95,19995.181607292,19997.751751542,13,19995.246198333,19995.312955125,19997.76544725,19998.708785917,0,2.57014424999943
120,7,1,categorization,0,bathroom,SHINEd_sun_agguqiubmwhqqunb.tif,22,0.0666666666666667,0.0666666666666667,0.733333333333333,19998.714570875,20000.944363833,9,19998.776422333,19998.837232625,20000.956366708,20001.683038083,0,2.22979295800178
120,8,1,categorization,0,bathroom,SHINEd_sun_anryaplzeujmzfkd.tif,39,0.0666666666666667,0.0666666666666667,1.31666666666667,20001.688439917,20003.223573,9,20001.75025575,20001.811141958,20003.229919958,20004.539958042,0,1.53513308299807
120,9,1,categorization,0,bathroom,SHINEd_sun_ajlawzvmubibwbpy.tif,30,0.0666666666666667,0.0666666666666667,0.8,20004.559038792,20005.675771292,13,20004.625928542,20004.691574167,20005.698632333,20006.491970875,1,1.1167325000024
120,10,1,categorization,0,kitchen,SHINEd_sun_auaiucuqpdausiva.tif,102,0.0666666666666667,0.0666666666666667,0.716666666666667,20006.497460583,20007.624148167,9,20006.559201583,20006.620168292,20007.639250417,20008.349255042,1,1.12668758400105
120,11,1,categorization,0,bathroom,SHINEd_sun_apkruvsevgegsdwp.tif,44,0.0666666666666667,0.0666666666666667,0.916666666666667,20008.354049917,20010.655903042,9,20008.415813583,20008.476720417,20010.662560458,20011.572563917,0,2.30185312499816
120,12,1,categorization,0,kitchen,SHINEd_sun_aggjlwcdjsjcaemh.tif,86,0.0666666666666667,0.0666666666666667,0.95,20011.57728025,20016.082322917,9,20011.639024417,20011.699781875,20016.102156208,20017.045494708,1,4.50504266699863
120,13,1,categorization,0,kitchen,SHINEd_sun_aenotlpyftoioydp.tif,82,0.0666666666666667,0.0666666666666667,0.833333333333333,20017.050645583,20019.439971,9,20017.112427583,20017.173340875,20019.459750083,20020.286419875,1,2.38932541699978
120,14,1,categorization,0,bathroom,SHINEd_sun_atstyziqcmkahyxk.tif,51,0.0666666666666667,0.0666666666666667,0.75,20020.291297292,20021.671868708,13,20020.353136417,20020.413943083,20021.682815667,20022.426154167,1,1.38057141600075
120,15,1,categorization,0,bathroom,SHINEd_sun_apynckhmoftszqoq.tif,47,0.0666666666666667,0.0666666666666667,1.53333333333333,20022.431060167,20023.599539875,13,20022.492789958,20022.553684167,20023.605533125,20025.132249458,1,1.1684797079979
120,16,1,categorization,0,kitchen,SHINEd_sun_acfmftudsenhrfhy.tif,74,0.0666666666666667,0.0666666666666667,1.05,20025.150051833,20028.223983917,9,20025.217653333,20025.282853792,20028.235407625,20029.278794667,1,3.07393208400026
120,17,1,categorization,0,bathroom,SHINEd_sun_akiytfaagpdsphgz.tif,31,0.0666666666666667,0.0666666666666667,0.9,20029.290735875,20030.887351542,9,20029.355543375,20029.42156525,20030.913937458,20031.807274833,0,1.59661566699651
120,18,1,categorization,0,bathroom,SHINEd_sun_apmqjbnwghzuhhzh.tif,46,0.0666666666666667,0.0666666666666667,1.18333333333333,20031.812954708,20033.047894667,13,20031.874666292,20031.935707417,20033.05502175,20034.231728792,1,1.23493995900208
120,19,1,categorization,0,bathroom,SHINEd_sun_aoybiabnpadelefl.tif,41,0.0666666666666667,0.0666666666666667,0.9,20034.242107875,20035.636460125,9,20034.310469042,20034.374607833,20035.668052333,20036.561389292,0,1.39435224999761
120,20,1,categorization,0,kitchen,SHINEd_sun_aexklacwqwezaorf.tif,84,0.0666666666666667,0.0666666666666667,1.66666666666667,20036.568266625,20037.632196125,9,20036.630095417,20036.690914333,20037.642928875,20039.302966,1,1.06392950000009
120,21,1,categorization,0,bathroom,SHINEd_sun_avhrdrntsqrjzccq.tif,55,0.0666666666666667,0.0666666666666667,1.13333333333333,20039.321204458,20041.399698042,9,20039.387913667,20039.453771083,20041.406993708,20042.533702667,0,2.07849358400199
120,22,1,categorization,0,kitchen,SHINEd_sun_awcpdzzznmweyyhv.tif,106,0.0666666666666667,0.0666666666666667,1.3,20042.542906708,20043.622860667,9,20042.607868958,20042.67560075,20043.649334042,20044.942718333,1,1.0799539590007
120,23,1,categorization,0,bathroom,SHINEd_sun_afcoljnjfoxjtgja.tif,20,0.0666666666666667,0.0666666666666667,1.93333333333333,20044.960435125,20046.259094333,13,20045.027405958,20045.092831208,20046.284167958,20048.210883042,1,1.29865920800148
120,24,1,categorization,0,kitchen,SHINEd_sun_abdxkyyxwfskuaqb.tif,70,0.0666666666666667,0.0666666666666667,1,20048.228551958,20051.263380417,9,20048.295953458,20048.361158125,20051.280014875,20052.273353583,1,3.03482845899998
120,25,1,categorization,0,bathroom,SHINEd_sun_aleqenyvunhactkl.tif,32,0.0666666666666667,0.0666666666666667,0.883333333333333,20052.278864417,20053.143678875,13,20052.340588,20052.401581458,20053.153476375,20054.030148375,1,0.864814458000183
120,26,1,categorization,0,kitchen,SHINEd_sun_ahywdevtimnqcsln.tif,94,0.0666666666666667,0.0666666666666667,1.95,20054.035292,20054.967375292,9,20054.096995583,20054.15845,20054.977203583,20056.920579792,1,0.932083291998424
120,27,1,categorization,0,bathroom,SHINEd_sun_ambriybtogmepttm.tif,36,0.0666666666666667,0.0666666666666667,1.25,20056.938226167,20058.159736167,9,20057.004335083,20057.070721708,20058.173395708,20059.416775708,0,1.2215099999994
120,28,1,categorization,0,bathroom,SHINEd_sun_aofnryafpsjimzsb.tif,40,0.0666666666666667,0.0666666666666667,1.95,20059.436069,20060.400451042,13,20059.503048542,20059.568905625,20060.426040042,20062.369428708,1,0.964382042002399
120,29,1,categorization,0,kitchen,SHINEd_sun_acxkpeoqbwcxfvip.tif,77,0.0666666666666667,0.0666666666666667,1.91666666666667,20062.387855542,20063.832155208,9,20062.454802833,20062.520757,20063.839986958,20065.750021667,1,1.44429966600001
120,30,1,categorization,0,kitchen,SHINEd_sun_adgqasybjyktddhj.tif,78,0.0666666666666667,0.0666666666666667,1.41666666666667,20065.771113333,20066.8632635,9,20065.838177625,20065.903641042,20066.872808208,20068.282861,1,1.09215016699818
120,31,1,categorization,0,bathroom,SHINEd_sun_ausgutylgojavyoq.tif,53,0.0666666666666667,0.0666666666666667,0.716666666666667,20068.300213458,20069.258168625,13,20068.367634833,20068.433066583,20069.271968917,20069.982022708,1,0.957955167003092
120,32,1,categorization,0,bathroom,SHINEd_sun_aggnnqpdorgxpvce.tif,21,0.0666666666666667,0.0666666666666667,1.28333333333333,20069.991307292,20071.111372333,9,20070.053802,20070.114061125,20071.1166255,20072.393329,0,1.12006504100282
120,33,1,categorization,0,bathroom,SHINEd_sun_auzqhkafidnkrwmo.tif,54,0.0666666666666667,0.0666666666666667,0.9,20072.410931125,20074.496011292,9,20072.477667417,20072.543194,20074.513118875,20075.406457083,0,2.08508016700216
120,34,1,categorization,0,kitchen,SHINEd_sun_ajkqhtgcbgpcwrwn.tif,97,0.0666666666666667,0.0666666666666667,0.8,20075.411091667,20076.60742775,9,20075.472872458,20075.533861583,20076.619672417,20077.413010625,1,1.19633608300137
120,35,1,categorization,0,kitchen,SHINEd_sun_agorklincwxrdtga.tif,87,0.0666666666666667,0.0666666666666667,1.01666666666667,20077.418807667,20078.871469375,9,20077.480541208,20077.541424625,20078.877264708,20079.887310833,1,1.45266170800096
120,36,1,categorization,0,kitchen,SHINEd_labelme_rykdqxenmhulbdn.tif,63,0.0666666666666667,0.0666666666666667,0.85,20079.89786125,20081.156420208,13,20079.962580708,20080.028757542,20081.188258917,20082.031597792,0,1.25855895800123
120,37,1,categorization,0,kitchen,SHINEd_sun_aypmqwcualkenuoe.tif,109,0.0666666666666667,0.0666666666666667,1.51666666666667,20082.037112958,20083.639954333,9,20082.09893075,20082.159839417,20083.645768625,20085.155820292,1,1.60284137499912
120,38,1,categorization,0,kitchen,SHINEd_sun_abrcnpqqhmjwekyf.tif,73,0.0666666666666667,0.0666666666666667,1.83333333333333,20085.173638917,20086.376792125,13,20085.240436042,20085.306488167,20086.395453,20088.22216375,0,1.203153208
120,39,1,categorization,0,kitchen,SHINEd_sun_aarfiyshqohlwkmo.tif,67,0.0666666666666667,0.0666666666666667,0.716666666666667,20088.240592583,20090.063447458,9,20088.307322083,20088.373155083,20090.07570975,20090.785714458,1,1.82285487500121
120,40,1,categorization,0,kitchen,SHINEd_sun_aamedkxepzlwuxes.tif,65,0.0666666666666667,0.0666666666666667,0.9,20090.790860333,20092.791555417,9,20090.852575708,20090.913524917,20092.799581792,20093.692920167,1,2.00069508399974
120,41,1,categorization,0,bathroom,SHINEd_sun_aunuadmjocsddsrl.tif,52,0.0666666666666667,0.0666666666666667,0.916666666666667,20093.697881417,20096.1674395,9,20093.759660625,20093.820537667,20096.172752208,20097.082757333,0,2.46955808300117
120,42,1,categorization,0,bathroom,SHINEd_sun_agyqfjcfkdcydepw.tif,25,0.0666666666666667,0.0666666666666667,0.816666666666667,20097.088203708,20098.727178583,13,20097.149881083,20097.210911792,20098.747028042,20099.557032583,1,1.63897487500071
120,43,1,categorization,0,kitchen,SHINEd_sun_afuyedyxivkhecmu.tif,85,0.0666666666666667,0.0666666666666667,1.88333333333333,20099.562416833,20100.519788167,13,20099.624314708,20099.685077625,20100.536823,20102.413522458,0,0.957371333999617
120,44,1,categorization,0,kitchen,SHINEd_sun_aqeaevwwwjoqhzvl.tif,101,0.0666666666666667,0.0666666666666667,0.9,20102.427463625,20105.207141958,13,20102.495875625,20102.559771125,20105.212473083,20106.105809917,0,2.77967833299772
120,45,1,categorization,0,kitchen,SHINEd_sun_acwjdupvyjsugpay.tif,76,0.0666666666666667,0.0666666666666667,1,20106.110779042,20106.943520208,9,20106.172539417,20106.233500125,20106.951980417,20107.945318292,1,0.832741165999323
120,46,1,categorization,0,bathroom,SHINEd_sun_axxbkopsgyouuebh.tif,58,0.0666666666666667,0.0666666666666667,0.733333333333333,20107.950910542,20109.615669042,9,20108.01254475,20108.073508875,20109.626191542,20110.352863083,0,1.66475849999915
120,47,1,categorization,0,bathroom,SHINEd_sun_abjtwfukuwddzted.tif,15,0.0666666666666667,0.0666666666666667,0.883333333333333,20110.358352417,20112.159768167,13,20110.420205625,20110.481066542,20112.166501333,20113.043172292,1,1.80141575000016
120,48,1,categorization,0,kitchen,SHINEd_labelme_kxvouciolcpqplr.tif,62,0.0666666666666667,0.0666666666666667,1.73333333333333,20113.050383708,20115.511279917,13,20113.1120965,20113.17306675,20115.52566,20117.252375,0,2.46089620899875
120,49,1,categorization,0,bathroom,SHINEd_sun_abapwbhyhkfixyex.tif,14,0.0666666666666667,0.0666666666666667,1.91666666666667,20117.270762958,20119.095768333,13,20117.337541708,20117.403302542,20119.106066625,20121.016105292,1,1.82500537500164
120,50,1,categorization,0,kitchen,SHINEd_sun_akcjzhbbjlbogpdi.tif,99,0.0666666666666667,0.0666666666666667,1.35,20121.033173375,20122.615648083,13,20121.101305792,20121.1656105,20122.6350715,20123.978452708,0,1.58247470800052
120,1,2,categorization,0,bathroom,SHINEd_sun_aljolscmmzydegqp.tif,33,0.0666666666666667,0.0666666666666667,0.95,20208.557643292,20209.974793292,13,20208.62014425,20208.680591833,20209.982834083,20210.926170875,1,1.41715000000113
120,2,2,categorization,0,bathroom,SHINEd_sun_aapitsgbtktqubfy.tif,12,0.0666666666666667,0.0666666666666667,0.75,20210.934419875,20212.054880375,13,20210.99625375,20211.056971167,20212.058803833,20212.802142875,1,1.12046049999844
120,3,2,categorization,0,bathroom,SHINEd_sun_alotolagknyrgtsk.tif,35,0.0666666666666667,0.0666666666666667,1.68333333333333,20212.807831167,20214.503161333,13,20212.869661,20212.930595833,20214.51635375,20216.193059167,1,1.69533016599962
120,4,2,categorization,0,bathroom,SHINEd_sun_alkosphxlxwjwgjd.tif,34,0.0666666666666667,0.0666666666666667,0.816666666666667,20216.20828575,20217.090943167,13,20216.275043417,20216.340878292,20217.114217792,20217.924221208,1,0.88265741700161
120,5,2,categorization,0,bathroom,SHINEd_sun_ahqjwnzgolcaoidx.tif,29,0.0666666666666667,0.0666666666666667,0.916666666666667,20217.92914175,20218.862832208,13,20217.990969,20218.051882167,20218.870876167,20219.780881542,1,0.933690458001365
120,6,2,categorization,0,bathroom,SHINEd_sun_apkxzenqapsujocq.tif,45,0.0666666666666667,0.0666666666666667,1.21666666666667,20219.786535167,20220.543104583,13,20219.848229583,20219.909172583,20220.561259375,20221.771298583,1,0.756569416000275
120,7,2,categorization,0,kitchen,SHINEd_sun_ajcbwwvdlsvjyzje.tif,96,0.0666666666666667,0.0666666666666667,0.9,20221.787784292,20223.255609958,9,20221.854384417,20221.919977542,20223.277194708,20224.170532833,1,1.46782566600086
120,8,2,categorization,0,kitchen,SHINEd_sun_agubuxuukhzyzpdp.tif,88,0.0666666666666667,0.0666666666666667,1.65,20224.175923208,20226.006834458,9,20224.238045208,20224.298536,20226.017414208,20227.66078225,1,1.83091124999919
120,9,2,categorization,0,bathroom,SHINEd_sun_aclfzgynxzxlbepz.tif,19,0.0666666666666667,0.0666666666666667,1.15,20227.676402375,20228.729633958,13,20227.744097917,20227.808912958,20228.747664875,20229.891049042,1,1.05323158299871
120,10,2,categorization,0,bathroom,SHINEd_sun_ahcvzmoyaycdoftf.tif,27,0.0666666666666667,0.0666666666666667,1.13333333333333,20229.900862792,20232.366681875,13,20229.965644625,20230.030301208,20232.38282775,20233.509537375,1,2.46581908299777
120,11,2,categorization,0,kitchen,SHINEd_sun_acgtpgfybqjmzeyw.tif,75,0.0666666666666667,0.0666666666666667,1.76666666666667,20233.51888475,20234.432165542,9,20233.584366667,20233.652667292,20234.459387167,20236.219429292,1,0.913280791999568
120,12,2,categorization,0,bathroom,SHINEd_sun_amzlamotzwfkwjco.tif,37,0.0666666666666667,0.0666666666666667,1.8,20236.237827292,20237.348167417,9,20236.30480575,20236.370642208,20237.377958958,20239.171325417,0,1.11034012500022
120,13,2,categorization,0,bathroom,SHINEd_sun_aqrpegblszgcoujh.tif,48,0.0666666666666667,0.0666666666666667,0.9,20239.190287,20240.259656583,13,20239.257275667,20239.323104792,20240.27988525,20241.173222125,1,1.06936958299775
120,14,2,categorization,0,kitchen,SHINEd_sun_aegoxogugdkwpmpj.tif,80,0.0666666666666667,0.0666666666666667,0.716666666666667,20241.179237708,20243.750611208,9,20241.241136625,20241.301971542,20243.754014958,20244.46401925,1,2.57137350000266
120,15,2,categorization,0,bathroom,SHINEd_sun_aavhrsfjbserjtht.tif,13,0.0666666666666667,0.0666666666666667,1.36666666666667,20244.46932425,20245.750384,13,20244.531183,20244.59195775,20245.761063417,20247.121116458,1,1.28105974999926
120,16,2,categorization,0,kitchen,SHINEd_sun_abftihopvusyfakt.tif,71,0.0666666666666667,0.0666666666666667,0.916666666666667,20247.141158458,20248.450904667,9,20247.207784458,20247.273532792,20248.483115625,20249.393119875,1,1.30974620900088
120,17,2,categorization,0,bathroom,SHINEd_sun_aghyqhbptboemmoq.tif,23,0.0666666666666667,0.0666666666666667,0.716666666666667,20249.400476917,20250.83141575,9,20249.46214225,20249.523227542,20250.842570625,20251.5525765,0,1.43093883300025
120,18,2,categorization,0,kitchen,SHINEd_sun_aymvwlarqodbwuoc.tif,108,0.0666666666666667,0.0666666666666667,0.766666666666667,20251.558217542,20252.726548375,9,20251.620031375,20251.680924583,20252.732772208,20253.492777417,1,1.16833083300298
120,19,2,categorization,0,bathroom,SHINEd_labelme_sfxiulhjbhlyiyt.tif,11,0.0666666666666667,0.0666666666666667,1.06666666666667,20253.49765175,20254.350377917,13,20253.559389792,20253.620268667,20254.355794458,20255.415840333,1,0.852726166998764
120,20,2,categorization,0,kitchen,SHINEd_sun_amjjdeyrggfqgmom.tif,100,0.0666666666666667,0.0666666666666667,0.8,20255.428539958,20256.69747575,9,20255.493455667,20255.559364125,20256.716853167,20257.510191083,1,1.26893579199896
120,21,2,categorization,0,kitchen,SHINEd_sun_ahspylgoovwmwvgk.tif,93,0.0666666666666667,0.0666666666666667,0.866666666666667,20257.517274958,20259.294276667,9,20257.579107625,20257.639938042,20259.309599667,20260.169602917,1,1.77700170899698
120,22,2,categorization,0,kitchen,SHINEd_sun_aapllqyqlykszopd.tif,66,0.0666666666666667,0.0666666666666667,1.48333333333333,20260.174537458,20261.398551042,13,20260.236221167,20260.297395958,20261.416907542,20262.893625583,0,1.2240135840002
120,23,2,categorization,0,bathroom,SHINEd_sun_anhioqovhscjqqwb.tif,38,0.0666666666666667,0.0666666666666667,1.1,20262.909471333,20264.042993167,13,20262.977656583,20263.041980125,20264.065771792,20265.159145292,1,1.13352183399911
120,24,2,categorization,0,kitchen,SHINEd_sun_axyyrmzcupyhlivc.tif,107,0.0666666666666667,0.0666666666666667,0.783333333333333,20265.169044125,20265.990976042,9,20265.234669833,20265.301370542,20266.006098708,20266.782800708,1,0.821931917002075
120,25,2,categorization,0,kitchen,SHINEd_sun_abpwyqmlzafvklqo.tif,72,0.0666666666666667,0.0666666666666667,0.866666666666667,20266.799122917,20267.822978458,9,20266.866275833,20266.931636583,20267.834167875,20268.694174292,1,1.02385554099965
120,26,2,categorization,0,bathroom,SHINEd_sun_apjevzvycyhuqghb.tif,43,0.0666666666666667,0.0666666666666667,1.83333333333333,20268.6999045,20269.886335292,9,20268.761711292,20268.82257625,20269.89158275,20271.718277875,0,1.18643079200046
120,27,2,categorization,0,bathroom,SHINEd_sun_agrwbmhcpmfuwmsg.tif,24,0.0666666666666667,0.0666666666666667,0.7,20271.736931042,20273.030877542,13,20271.80293125,20271.869312375,20273.038628708,20273.731966458,1,1.29394650000177
120,28,2,categorization,0,kitchen,SHINEd_sun_agzzivivdpnawacl.tif,89,0.0666666666666667,0.0666666666666667,1.33333333333333,20273.737368417,20274.926962625,9,20273.79916575,20273.859952208,20274.945238,20276.271946,1,1.18959420799729
120,29,2,categorization,0,bathroom,SHINEd_sun_axyrejkiiaqiurjk.tif,59,0.0666666666666667,0.0666666666666667,1.33333333333333,20276.287979583,20278.799231375,9,20276.354730833,20276.420485083,20278.806423333,20280.133142292,0,2.5112517919988
120,30,2,categorization,0,bathroom,SHINEd_sun_azqyogdvyhahyram.tif,60,0.0666666666666667,0.0666666666666667,1.38333333333333,20280.151621208,20281.033047708,13,20280.218198417,20280.284093542,20281.057271625,20282.43399,1,0.881426500000089
120,31,2,categorization,0,kitchen,SHINEd_sun_akchetnepxlcxhsu.tif,98,0.0666666666666667,0.0666666666666667,1.25,20282.452752458,20283.295315833,13,20282.519554542,20282.583719,20283.323546458,20284.566923125,0,0.842563374997553
120,32,2,categorization,0,kitchen,SHINEd_sun_aunzlwrbjumxhwdj.tif,103,0.0666666666666667,0.0666666666666667,1.55,20284.586677042,20285.5746055,9,20284.653468,20284.719084625,20285.591564167,20287.134932,1,0.987928458001988
120,33,2,categorization,0,kitchen,SHINEd_sun_aaxxjlsuzvqlgylf.tif,68,0.0666666666666667,0.0666666666666667,1.61666666666667,20287.153625167,20289.462955625,9,20287.220497083,20287.286196,20289.472313583,20291.082364167,1,2.30933045799975
120,34,2,categorization,0,kitchen,SHINEd_sun_azmutvzbxypaceni.tif,110,0.0666666666666667,0.0666666666666667,1.33333333333333,20291.103153,20292.568951292,9,20291.170107083,20291.235657292,20292.591784042,20293.918495708,1,1.46579829199982
120,35,2,categorization,0,bathroom,SHINEd_sun_axldvoqbuvuggfmq.tif,57,0.0666666666666667,0.0666666666666667,0.833333333333333,20293.928399667,20295.11326475,13,20293.9935585,20294.061915833,20295.135221042,20295.961892333,1,1.18486508300339
120,36,2,categorization,0,kitchen,SHINEd_sun_admlmbcdswaszruo.tif,79,0.0666666666666667,0.0666666666666667,1.45,20295.966807083,20296.806469042,9,20296.0285205,20296.089496083,20296.8247585,20298.268141167,1,0.839661958998477
120,37,2,categorization,0,kitchen,SHINEd_sun_ahpczsiumwwocjkv.tif,92,0.0666666666666667,0.0666666666666667,0.933333333333333,20298.287524208,20300.094270458,9,20298.3544935,20298.420175,20300.105835667,20301.03250675,1,1.80674625000029
120,38,2,categorization,0,kitchen,SHINEd_sun_ahdycvpopffkzzsu.tif,90,0.0666666666666667,0.0666666666666667,1.65,20301.037792042,20303.063114625,9,20301.09964275,20301.16039925,20303.080050292,20304.72342125,1,2.02532258300198
120,39,2,categorization,0,kitchen,SHINEd_sun_aadbddgrdsjugojn.tif,64,0.0666666666666667,0.0666666666666667,1.23333333333333,20304.740820833,20306.382586,9,20304.809219542,20304.873761292,20306.393468958,20307.620166625,1,1.64176516699808
120,40,2,categorization,0,bathroom,SHINEd_sun_acgyywnybuveqsro.tif,18,0.0666666666666667,0.0666666666666667,0.766666666666667,20307.635792833,20308.688584083,13,20307.702877167,20307.768009083,20308.707658125,20309.467668625,1,1.05279125000015
120,41,2,categorization,0,bathroom,SHINEd_sun_aspsyogrekjtfozg.tif,50,0.0666666666666667,0.0666666666666667,1.78333333333333,20309.473708875,20310.950405292,13,20309.535615958,20309.596431458,20310.965987042,20312.742703917,1,1.47669641699758
120,42,2,categorization,0,bathroom,SHINEd_sun_asfwthctfqerjvxr.tif,49,0.0666666666666667,0.0666666666666667,1.11666666666667,20312.759823208,20314.335170708,9,20312.828222708,20312.892471667,20314.344856542,20315.454893708,0,1.57534749999832
120,43,2,categorization,0,kitchen,SHINEd_sun_auticobqsbwgoppi.tif,104,0.0666666666666667,0.0666666666666667,1.85,20315.464883,20319.014588,9,20315.52959275,20315.597261792,20319.033263625,20320.876628375,1,3.54970499999763
120,44,2,categorization,0,bathroom,SHINEd_sun_acduarbnmmoglmiv.tif,16,0.0666666666666667,0.0666666666666667,0.733333333333333,20320.893580833,20322.5820755,13,20320.960148583,20321.026523833,20322.595846458,20323.322518167,1,1.68849466699976
120,45,2,categorization,0,bathroom,SHINEd_sun_ahaulkltgpkeeemi.tif,26,0.0666666666666667,0.0666666666666667,0.783333333333333,20323.327285375,20324.527057,13,20323.38902275,20323.449962333,20324.535483458,20325.31215475,1,1.19977162500072
120,46,2,categorization,0,kitchen,SHINEd_sun_avszsnwsbuqfgzbn.tif,105,0.0666666666666667,0.0666666666666667,1.5,20325.317044958,20326.158158292,9,20325.378818417,20325.439963583,20326.175169,20327.668540292,1,0.84111333400142
120,47,2,categorization,0,kitchen,SHINEd_sun_ahljzhgcdpomplvg.tif,91,0.0666666666666667,0.0666666666666667,0.733333333333333,20327.687306208,20328.620331042,9,20327.753873792,20327.819440542,20328.642623708,20329.369294333,1,0.933024833997479
120,48,2,categorization,0,bathroom,SHINEd_sun_apeeialkgkuxddgh.tif,42,0.0666666666666667,0.0666666666666667,1.1,20329.3748125,20330.486420625,13,20329.436583958,20329.4975805,20330.499573125,20331.592951083,1,1.1116081250002
120,49,2,categorization,0,bathroom,SHINEd_sun_acegryoqftbzowsg.tif,17,0.0666666666666667,0.0666666666666667,1.6,20331.603498417,20332.654153833,9,20331.668607542,20331.735664417,20332.67545,20334.268821708,0,1.05065541599834
120,50,2,categorization,0,bathroom,SHINEd_sun_ahijqszoswveeyji.tif,28,0.0666666666666667,0.0666666666666667,1.06666666666667,20334.286964375,20336.054242667,9,20334.354074375,20334.4196665,20336.0721495,20337.13219675,0,1.76727829200172
120,1,3,categorization,0,bathroom,SHINEd_sun_apkruvsevgegsdwp.tif,44,0.0666666666666667,0.0666666666666667,0.85,20383.530083542,20384.478426625,13,20383.592616125,20383.652824458,20384.488065917,20385.331402583,1,0.948343083000509
120,2,3,categorization,0,bathroom,SHINEd_sun_aapitsgbtktqubfy.tif,12,0.0666666666666667,0.0666666666666667,1.65,20385.3362005,20386.117978708,13,20385.398065625,20385.458894208,20386.12741875,20387.770784042,1,0.781778207998286
120,3,3,categorization,0,kitchen,SHINEd_sun_ajkqhtgcbgpcwrwn.tif,97,0.0666666666666667,0.0666666666666667,0.783333333333333,20387.787802917,20388.747008708,13,20387.854543542,20387.919130292,20388.775719583,20389.552391375,0,0.959205791001295
120,4,3,categorization,0,kitchen,SHINEd_sun_afuyedyxivkhecmu.tif,85,0.0666666666666667,0.0666666666666667,0.933333333333333,20389.557384917,20390.502637333,13,20389.619065833,20389.679981333,20390.515488625,20391.442160792,0,0.945252416000585
120,5,3,categorization,0,kitchen,SHINEd_sun_amjjdeyrggfqgmom.tif,100,0.0666666666666667,0.0666666666666667,0.866666666666667,20391.447026333,20392.221875667,9,20391.508757875,20391.569662625,20392.238247375,20393.098252667,1,0.774849334000464
120,6,3,categorization,0,kitchen,SHINEd_sun_akchetnepxlcxhsu.tif,98,0.0666666666666667,0.0666666666666667,1.11666666666667,20393.103153917,20394.694692375,9,20393.164801625,20393.22600625,20394.711712833,20395.82176675,1,1.59153845800029
120,7,3,categorization,0,kitchen,SHINEd_sun_aymvwlarqodbwuoc.tif,108,0.0666666666666667,0.0666666666666667,0.966666666666667,20395.833767875,20396.592349625,9,20395.898250333,20395.96517625,20396.621536833,20397.581574083,1,0.758581750000303
120,8,3,categorization,0,kitchen,SHINEd_sun_aenotlpyftoioydp.tif,82,0.0666666666666667,0.0666666666666667,1.78333333333333,20397.598052333,20398.397808958,9,20397.664263542,20397.731407625,20398.416913458,20400.193608333,1,0.799756625001464
120,9,3,categorization,0,bathroom,SHINEd_sun_ahqjwnzgolcaoidx.tif,29,0.0666666666666667,0.0666666666666667,1.55,20400.210485125,20401.087597417,13,20400.278290375,20400.343173417,20401.116052292,20402.659417125,1,0.877112292000675
120,10,3,categorization,0,bathroom,SHINEd_sun_ahcvzmoyaycdoftf.tif,27,0.0666666666666667,0.0666666666666667,1.41666666666667,20402.676657708,20403.424128542,13,20402.743348792,20402.808871708,20403.448949583,20404.858995583,1,0.747470833997795
120,11,3,categorization,0,kitchen,SHINEd_sun_abdenxonkemggwsq.tif,69,0.0666666666666667,0.0666666666666667,0.8,20404.877106958,20407.718331958,9,20404.944072333,20405.009083375,20407.727910292,20408.521247458,1,2.84122500000012
120,12,3,categorization,0,kitchen,SHINEd_sun_aggjlwcdjsjcaemh.tif,86,0.0666666666666667,0.0666666666666667,1.28333333333333,20408.526086958,20409.749824708,9,20408.587932542,20408.648720583,20409.767692583,20411.044396958,1,1.22373774999869
120,13,3,categorization,0,bathroom,SHINEd_sun_ausgutylgojavyoq.tif,53,0.0666666666666667,0.0666666666666667,1.66666666666667,20411.062462958,20412.423068917,13,20411.128820083,20411.194477333,20412.453295042,20414.113343667,1,1.36060595899835
120,14,3,categorization,0,bathroom,SHINEd_sun_axldvoqbuvuggfmq.tif,57,0.0666666666666667,0.0666666666666667,1.81666666666667,20414.135723667,20414.979760375,13,20414.202839,20414.26829575,20415.008383292,20416.818434875,1,0.844036708000203
120,15,3,categorization,0,kitchen,SHINEd_sun_aaxxjlsuzvqlgylf.tif,68,0.0666666666666667,0.0666666666666667,1.35,20416.837419,20417.8784705,9,20416.904374958,20416.970040458,20417.892179667,20419.23554525,1,1.04105150000032
120,16,3,categorization,0,bathroom,SHINEd_sun_anryaplzeujmzfkd.tif,39,0.0666666666666667,0.0666666666666667,0.916666666666667,20419.253826667,20420.53723475,9,20419.320808625,20419.386090458,20420.56175825,20421.471763333,0,1.28340808299981
120,17,3,categorization,0,bathroom,SHINEd_sun_agrwbmhcpmfuwmsg.tif,24,0.0666666666666667,0.0666666666666667,0.916666666666667,20421.476786333,20422.558489125,9,20421.538634042,20421.599418,20422.568103958,20423.4781095,0,1.0817027919984
120,18,3,categorization,0,bathroom,SHINEd_sun_apmqjbnwghzuhhzh.tif,46,0.0666666666666667,0.0666666666666667,1.31666666666667,20423.483023667,20424.677820667,13,20423.544790333,20423.605616625,20424.691852167,20426.001921042,1,1.19479700000011
120,19,3,categorization,0,kitchen,SHINEd_sun_adgqasybjyktddhj.tif,78,0.0666666666666667,0.0666666666666667,1.45,20426.01229875,20426.830146083,9,20426.08034725,20426.144625125,20426.851014833,20428.294400875,1,0.817847333000827
120,20,3,categorization,0,bathroom,SHINEd_sun_acduarbnmmoglmiv.tif,16,0.0666666666666667,0.0666666666666667,0.95,20428.309838333,20429.530893333,13,20428.376685458,20428.442286583,20429.54818425,20430.491521917,1,1.2210550000018
120,21,3,categorization,0,kitchen,SHINEd_sun_aamedkxepzlwuxes.tif,65,0.0666666666666667,0.0666666666666667,1.38333333333333,20430.49692,20431.40627075,9,20430.558812542,20430.619683333,20431.422261792,20432.798968708,1,0.909350750000158
120,22,3,categorization,0,kitchen,SHINEd_sun_acwjdupvyjsugpay.tif,76,0.0666666666666667,0.0666666666666667,1.16666666666667,20432.811227958,20433.920611,9,20432.87862225,20432.944033833,20433.931954083,20435.091991125,1,1.10938304200317
120,23,3,categorization,0,bathroom,SHINEd_sun_acgyywnybuveqsro.tif,18,0.0666666666666667,0.0666666666666667,1.61666666666667,20435.103273708,20435.839536167,13,20435.1711,20435.23623175,20435.860171042,20437.470226792,1,0.736262459002319
120,24,3,categorization,0,bathroom,SHINEd_sun_abapwbhyhkfixyex.tif,14,0.0666666666666667,0.0666666666666667,1.38333333333333,20437.489391,20438.26989725,9,20437.558704375,20437.622100333,20438.2964515,20439.673156833,0,0.780506250001054
120,25,3,categorization,0,kitchen,SHINEd_sun_acfmftudsenhrfhy.tif,74,0.0666666666666667,0.0666666666666667,1.78333333333333,20439.691737292,20440.589966125,9,20439.760504708,20439.82454875,20440.6151055,20442.391822917,1,0.898228833000758
120,26,3,categorization,0,kitchen,SHINEd_sun_aarfiyshqohlwkmo.tif,67,0.0666666666666667,0.0666666666666667,0.783333333333333,20442.410032208,20443.303524083,9,20442.47861275,20442.54248125,20443.332781958,20444.109453958,1,0.89349187499829
120,27,3,categorization,0,bathroom,SHINEd_sun_aunuadmjocsddsrl.tif,52,0.0666666666666667,0.0666666666666667,1.65,20444.116108292,20445.05380125,9,20444.178057125,20444.238958125,20445.057425667,20446.700813625,0,0.937692957999388
120,28,3,categorization,0,bathroom,SHINEd_sun_ahijqszoswveeyji.tif,28,0.0666666666666667,0.0666666666666667,1.86666666666667,20446.719118625,20447.935868333,9,20446.785802625,20446.851445958,20447.95655075,20449.816599375,0,1.21674970800086
120,29,3,categorization,0,kitchen,SHINEd_sun_auaiucuqpdausiva.tif,102,0.0666666666666667,0.0666666666666667,1.23333333333333,20449.835181125,20450.721819417,9,20449.901826208,20449.966525708,20450.739235792,20451.965938167,1,0.886638291998679
120,30,3,categorization,0,bathroom,SHINEd_sun_abjtwfukuwddzted.tif,15,0.0666666666666667,0.0666666666666667,0.7,20451.976343042,20452.886404875,13,20452.043208708,20452.109067208,20452.915623208,20453.608994042,1,0.910061833001237
120,31,3,categorization,0,bathroom,SHINEd_sun_asfwthctfqerjvxr.tif,49,0.0666666666666667,0.0666666666666667,0.716666666666667,20453.624832375,20454.365767,13,20453.691440125,20453.757330708,20454.376070375,20455.086075208,1,0.740934624998772
120,32,3,categorization,0,kitchen,SHINEd_sun_abdxkyyxwfskuaqb.tif,70,0.0666666666666667,0.0666666666666667,1.05,20455.09175325,20455.902377792,9,20455.153531125,20455.214430333,20455.916521292,20456.959902167,1,0.810624542002188
120,33,3,categorization,0,bathroom,SHINEd_sun_aofnryafpsjimzsb.tif,40,0.0666666666666667,0.0666666666666667,1.1,20456.971138708,20457.8880315,9,20457.036134917,20457.100286875,20457.906910167,20459.0002795,0,0.916892791999999
120,34,3,categorization,0,bathroom,SHINEd_sun_akiytfaagpdsphgz.tif,31,0.0666666666666667,0.0666666666666667,1.13333333333333,20459.01893775,20459.74207775,13,20459.08093575,20459.141548708,20459.760569417,20460.887271417,1,0.723140000001877
120,35,3,categorization,0,bathroom,SHINEd_sun_amzlamotzwfkwjco.tif,37,0.0666666666666667,0.0666666666666667,1.38333333333333,20460.900290792,20461.753116875,13,20460.965219792,20461.032571667,20461.771953792,20463.148669125,1,0.852826082998945
120,36,3,categorization,0,kitchen,SHINEd_sun_acxkpeoqbwcxfvip.tif,77,0.0666666666666667,0.0666666666666667,1.5,20463.169499042,20463.928748333,9,20463.235956667,20463.301988208,20463.939273792,20465.432661375,1,0.759249291000742
120,37,3,categorization,0,bathroom,SHINEd_sun_aljolscmmzydegqp.tif,33,0.0666666666666667,0.0666666666666667,1.61666666666667,20465.451898208,20466.328233958,13,20465.518815917,20465.584295958,20466.357504667,20467.967556,1,0.876335749999271
120,38,3,categorization,0,kitchen,SHINEd_sun_aexklacwqwezaorf.tif,84,0.0666666666666667,0.0666666666666667,0.983333333333333,20467.9770575,20468.8400715,13,20468.045823583,20468.109290333,20468.865901875,20469.842573667,0,0.863013999998657
120,39,3,categorization,0,bathroom,SHINEd_sun_agyqfjcfkdcydepw.tif,25,0.0666666666666667,0.0666666666666667,1.3,20469.849320875,20470.758364583,9,20469.911064833,20469.972015375,20470.774152125,20472.06751625,0,0.909043707997625
120,40,3,categorization,0,bathroom,SHINEd_labelme_sfxiulhjbhlyiyt.tif,11,0.0666666666666667,0.0666666666666667,1.03333333333333,20472.085500083,20473.006322875,13,20472.15231125,20472.2180835,20473.024415875,20474.05111725,1,0.920822791998944
120,41,3,categorization,0,bathroom,SHINEd_sun_agguqiubmwhqqunb.tif,22,0.0666666666666667,0.0666666666666667,1.45,20474.062008875,20474.9136475,13,20474.127243417,20474.19307425,20474.932454208,20476.375834,1,0.851638625001215
120,42,3,categorization,0,bathroom,SHINEd_sun_aqrpegblszgcoujh.tif,48,0.0666666666666667,0.0666666666666667,1.23333333333333,20476.39264975,20477.181316917,13,20476.459458417,20476.525443958,20477.197655542,20478.4243595,1,0.788667166998493
120,43,3,categorization,0,kitchen,SHINEd_labelme_brsyyvweiuaazfr.tif,61,0.0666666666666667,0.0666666666666667,1.26666666666667,20478.439415417,20479.302389167,9,20478.506527792,20478.571715125,20479.32679975,20480.586850625,1,0.862973749997764
120,44,3,categorization,0,bathroom,SHINEd_sun_aggnnqpdorgxpvce.tif,21,0.0666666666666667,0.0666666666666667,1.03333333333333,20480.605346667,20482.121759833,9,20480.672294833,20480.73820125,20482.148206917,20483.174902292,0,1.51641316600217
120,45,3,categorization,0,kitchen,SHINEd_sun_agorklincwxrdtga.tif,87,0.0666666666666667,0.0666666666666667,1.31666666666667,20483.18849825,20484.05028025,9,20483.25370225,20483.31994975,20484.0767725,20485.386827417,1,0.861781999999948
120,46,3,categorization,0,kitchen,SHINEd_sun_auticobqsbwgoppi.tif,104,0.0666666666666667,0.0666666666666667,1.7,20485.405584125,20486.656047917,13,20485.47414775,20485.538139125,20486.678780833,20488.372164958,0,1.25046379199921
120,47,3,categorization,0,kitchen,SHINEd_sun_aunzlwrbjumxhwdj.tif,103,0.0666666666666667,0.0666666666666667,1.35,20488.390283042,20489.201365625,9,20488.458486958,20488.522792792,20489.229879208,20490.573249375,1,0.811082582997187
120,48,3,categorization,0,kitchen,SHINEd_sun_aeqdocilnnpuvuhx.tif,83,0.0666666666666667,0.0666666666666667,0.8,20490.590705458,20491.821785,13,20490.659035375,20490.723074125,20491.848149417,20492.641486417,0,1.23107954200168
120,49,3,categorization,0,kitchen,SHINEd_sun_azmutvzbxypaceni.tif,110,0.0666666666666667,0.0666666666666667,0.766666666666667,20492.646684125,20493.518422583,13,20492.7085095,20492.7693845,20493.537947167,20494.297951125,0,0.871738458001346
120,50,3,categorization,0,kitchen,SHINEd_sun_agzzivivdpnawacl.tif,89,0.0666666666666667,0.0666666666666667,1.38333333333333,20494.302741958,20494.949411792,13,20494.364741875,20494.425442125,20494.960885583,20496.33760175,0,0.646669834000932
120,1,4,categorization,0,kitchen,SHINEd_sun_akcjzhbbjlbogpdi.tif,99,0.0666666666666667,0.0666666666666667,1,20530.70130225,20531.717783417,13,20530.7632165,20530.824034042,20531.725904042,20532.719242333,0,1.01648116700017
120,2,4,categorization,0,bathroom,SHINEd_sun_avhrdrntsqrjzccq.tif,55,0.0666666666666667,0.0666666666666667,0.966666666666667,20532.724298,20533.49417625,13,20532.785896917,20532.84697025,20533.498711417,20534.458715667,1,0.769878249997419
120,3,4,categorization,0,kitchen,SHINEd_sun_axyyrmzcupyhlivc.tif,107,0.0666666666666667,0.0666666666666667,1.75,20534.464777042,20535.23749075,9,20534.526586458,20534.587417542,20535.255916417,20536.999294958,1,0.772713708000083
120,4,4,categorization,0,bathroom,SHINEd_sun_apeeialkgkuxddgh.tif,42,0.0666666666666667,0.0666666666666667,1.68333333333333,20537.018335708,20537.907315667,13,20537.085079042,20537.150626375,20537.92238,20539.599079583,1,0.888979958999698
120,5,4,categorization,0,kitchen,SHINEd_sun_ahpczsiumwwocjkv.tif,92,0.0666666666666667,0.0666666666666667,1.58333333333333,20539.623276292,20541.421965833,9,20539.69003125,20539.755868083,20541.441879458,20543.018579292,1,1.79868954099948
120,6,4,categorization,0,kitchen,SHINEd_sun_aixorpehvfykdynp.tif,95,0.0666666666666667,0.0666666666666667,1,20543.03681725,20544.042378125,9,20543.103680042,20543.169554792,20544.059277708,20545.052617417,1,1.00556087500081
120,7,4,categorization,0,kitchen,SHINEd_sun_aypmqwcualkenuoe.tif,109,0.0666666666666667,0.0666666666666667,1.33333333333333,20545.058520542,20545.942088042,13,20545.12018775,20545.181127167,20545.949663125,20547.27638075,0,0.883567500000936
120,8,4,categorization,0,bathroom,SHINEd_sun_aghyqhbptboemmoq.tif,23,0.0666666666666667,0.0666666666666667,1.26666666666667,20547.294505167,20548.03204625,13,20547.36076375,20547.426604292,20548.049722417,20549.309758583,1,0.737541082999087
120,9,4,categorization,0,kitchen,SHINEd_sun_abrcnpqqhmjwekyf.tif,73,0.0666666666666667,0.0666666666666667,0.883333333333333,20549.328193958,20551.9091465,13,20549.393324583,20549.460802958,20551.913438708,20552.79011125,0,2.58095254199725
120,10,4,categorization,0,bathroom,SHINEd_sun_aspsyogrekjtfozg.tif,50,0.0666666666666667,0.0666666666666667,1.26666666666667,20552.794990083,20553.57330475,13,20552.856689583,20552.917671375,20553.586540292,20554.846585125,1,0.778314667000814
120,11,4,categorization,0,bathroom,SHINEd_sun_anhioqovhscjqqwb.tif,38,0.0666666666666667,0.0666666666666667,2,20554.864915458,20555.512762042,13,20554.931993292,20554.997307708,20555.536183667,20557.529566417,1,0.647846583997307
120,12,4,categorization,0,kitchen,SHINEd_labelme_kxvouciolcpqplr.tif,62,0.0666666666666667,0.0666666666666667,0.733333333333333,20557.548279292,20558.437615875,13,20557.615040917,20557.6809255,20558.452496208,20559.179167125,0,0.889336582997203
120,13,4,categorization,0,bathroom,SHINEd_sun_azqyogdvyhahyram.tif,60,0.0666666666666667,0.0666666666666667,0.883333333333333,20559.184320667,20559.869310917,13,20559.246100417,20559.30704075,20559.875598708,20560.752269,1,0.684990250003466
120,14,4,categorization,0,kitchen,SHINEd_sun_abpwyqmlzafvklqo.tif,72,0.0666666666666667,0.0666666666666667,0.983333333333333,20560.757071958,20561.662177792,9,20560.818722375,20560.879797,20561.682286833,20562.658958708,1,0.905105834001006
120,15,4,categorization,0,bathroom,SHINEd_sun_ambriybtogmepttm.tif,36,0.0666666666666667,0.0666666666666667,1.56666666666667,20562.665553833,20563.925815042,9,20562.727366833,20562.7883155,20563.94041525,20565.500452917,0,1.26026120899769
120,16,4,categorization,0,kitchen,SHINEd_sun_ahljzhgcdpomplvg.tif,91,0.0666666666666667,0.0666666666666667,1.08333333333333,20565.51877375,20566.258353167,9,20565.5856745,20565.651042708,20566.27371625,20567.350413792,1,0.739579417000641
120,17,4,categorization,0,bathroom,SHINEd_sun_aavhrsfjbserjtht.tif,13,0.0666666666666667,0.0666666666666667,0.75,20567.359650042,20571.979980458,9,20567.424585375,20567.491280542,20571.996284917,20572.739623625,0,4.6203304160008
120,18,4,categorization,0,kitchen,SHINEd_sun_ahspylgoovwmwvgk.tif,93,0.0666666666666667,0.0666666666666667,0.966666666666667,20572.744257625,20573.645605042,9,20572.806043458,20572.866910792,20573.6521895,20574.612193167,1,0.90134741699876
120,19,4,categorization,0,kitchen,SHINEd_sun_aegoxogugdkwpmpj.tif,80,0.0666666666666667,0.0666666666666667,1.63333333333333,20574.617969375,20575.693792417,9,20574.679772792,20574.740644417,20575.709760292,20577.336466833,1,1.07582304200332
120,20,4,categorization,0,kitchen,SHINEd_sun_aqeaevwwwjoqhzvl.tif,101,0.0666666666666667,0.0666666666666667,1.46666666666667,20577.356717625,20578.087317042,9,20577.424171208,20577.48953475,20578.113641167,20579.573685708,1,0.73059941700194
120,21,4,categorization,0,bathroom,SHINEd_sun_apynckhmoftszqoq.tif,47,0.0666666666666667,0.0666666666666667,0.933333333333333,20579.591654,20581.462117625,13,20579.6591275,20579.72584175,20581.478746458,20582.405418083,1,1.87046362500041
120,22,4,categorization,0,bathroom,SHINEd_sun_acegryoqftbzowsg.tif,17,0.0666666666666667,0.0666666666666667,1.45,20582.411215875,20584.718003167,13,20582.472996333,20582.533878417,20584.736543417,20586.179920208,1,2.30678729200008
120,23,4,categorization,0,bathroom,SHINEd_sun_afcoljnjfoxjtgja.tif,20,0.0666666666666667,0.0666666666666667,0.966666666666667,20586.196474458,20586.990765625,13,20586.264574417,20586.329096292,20587.018937125,20587.978940667,1,0.794291166999756
120,24,4,categorization,0,kitchen,SHINEd_sun_ahywdevtimnqcsln.tif,94,0.0666666666666667,0.0666666666666667,0.816666666666667,20587.984072875,20588.917231542,9,20588.045732375,20588.106723042,20588.925748583,20589.735752375,1,0.933158667001408
120,25,4,categorization,0,bathroom,SHINEd_sun_auzqhkafidnkrwmo.tif,54,0.0666666666666667,0.0666666666666667,1.96666666666667,20589.741300208,20592.109862792,13,20589.802955958,20589.864038375,20592.116242333,20594.076273292,1,2.36856258400076
120,26,4,categorization,0,bathroom,SHINEd_sun_aoybiabnpadelefl.tif,41,0.0666666666666667,0.0666666666666667,0.916666666666667,20594.092913458,20595.908959875,13,20594.161124292,20594.22530225,20595.927243458,20596.837249042,1,1.8160464169996
120,27,4,categorization,0,kitchen,SHINEd_sun_admlmbcdswaszruo.tif,79,0.0666666666666667,0.0666666666666667,1.28333333333333,20596.842956917,20598.525514333,9,20596.90474625,20596.965656833,20598.534898958,20599.8116195,1,1.68255741599933
120,28,4,categorization,0,bathroom,SHINEd_sun_axyrejkiiaqiurjk.tif,59,0.0666666666666667,0.0666666666666667,1.8,20599.828546458,20601.645498125,9,20599.896279375,20599.959664167,20601.662628042,20603.456008042,0,1.81695166699865
120,29,4,categorization,0,bathroom,SHINEd_sun_aleqenyvunhactkl.tif,32,0.0666666666666667,0.0666666666666667,1.33333333333333,20603.474207708,20606.117733083,9,20603.541148667,20603.606703958,20606.125901542,20607.4526175,0,2.64352537499872
120,30,4,categorization,0,bathroom,SHINEd_sun_alkosphxlxwjwgjd.tif,34,0.0666666666666667,0.0666666666666667,1.06666666666667,20607.47063575,20608.317239458,13,20607.537238417,20607.603562292,20608.343582042,20609.403619542,1,0.846603707999748
120,31,4,categorization,0,kitchen,SHINEd_sun_awcpdzzznmweyyhv.tif,106,0.0666666666666667,0.0666666666666667,1.03333333333333,20609.416585542,20612.245917292,9,20609.48132325,20609.547791542,20612.250303333,20613.277019792,1,2.82933174999926
120,32,4,categorization,0,kitchen,SHINEd_sun_aapllqyqlykszopd.tif,66,0.0666666666666667,0.0666666666666667,0.733333333333333,20613.290735542,20614.623740583,13,20613.355561,20613.421919458,20614.646067083,20615.372762792,0,1.33300504100043
120,33,4,categorization,0,kitchen,SHINEd_sun_ajcbwwvdlsvjyzje.tif,96,0.0666666666666667,0.0666666666666667,0.766666666666667,20615.38289775,20616.597657042,9,20615.444829458,20615.505623375,20616.6076285,20617.367632417,1,1.21475929199732
120,34,4,categorization,0,bathroom,SHINEd_sun_apkxzenqapsujocq.tif,45,0.0666666666666667,0.0666666666666667,1.1,20617.37313425,20618.333863208,13,20617.434956708,20617.49589175,20618.347918458,20619.441298125,1,0.96072895800171
120,35,4,categorization,0,kitchen,SHINEd_sun_ahdycvpopffkzzsu.tif,90,0.0666666666666667,0.0666666666666667,1.81666666666667,20619.450681875,20621.256531083,13,20619.515617458,20619.583161,20621.2743285,20623.084372167,0,1.80584920799811
120,36,4,categorization,0,kitchen,SHINEd_sun_agubuxuukhzyzpdp.tif,88,0.0666666666666667,0.0666666666666667,0.883333333333333,20623.102304,20625.141798625,13,20623.1689645,20623.234926875,20625.154221958,20626.030893667,0,2.03949462500168
120,37,4,categorization,0,kitchen,SHINEd_sun_abftihopvusyfakt.tif,71,0.0666666666666667,0.0666666666666667,1.7,20626.035949625,20626.98917975,9,20626.097680208,20626.1586475,20626.99447925,20628.687862375,1,0.953230125000118
120,38,4,categorization,0,bathroom,SHINEd_sun_aclfzgynxzxlbepz.tif,19,0.0666666666666667,0.0666666666666667,1.58333333333333,20628.705559542,20629.440983917,13,20628.773857167,20628.8388615,20629.46258025,20631.039287958,1,0.735424375001458
120,39,4,categorization,0,kitchen,SHINEd_labelme_rykdqxenmhulbdn.tif,63,0.0666666666666667,0.0666666666666667,0.833333333333333,20631.05685375,20632.701646458,9,20631.125142833,20631.189633875,20632.709138375,20633.535810583,1,1.64479270800075
120,40,4,categorization,0,bathroom,SHINEd_sun_atstyziqcmkahyxk.tif,51,0.0666666666666667,0.0666666666666667,0.95,20633.540764667,20634.33285525,13,20633.602475125,20633.663790458,20634.349077958,20635.292416792,1,0.792090582999663
120,41,4,categorization,0,bathroom,SHINEd_sun_apjevzvycyhuqghb.tif,43,0.0666666666666667,0.0666666666666667,1.06666666666667,20635.298371292,20638.462552042,13,20635.359965875,20635.421041625,20638.479529167,20639.539563917,1,3.16418075000183
120,42,4,categorization,0,bathroom,SHINEd_sun_ajlawzvmubibwbpy.tif,30,0.0666666666666667,0.0666666666666667,1.68333333333333,20639.550704833,20641.032406625,13,20639.615524167,20639.681296042,20641.057067625,20642.733778,1,1.48170179199951
120,43,4,categorization,0,bathroom,SHINEd_sun_axxbkopsgyouuebh.tif,58,0.0666666666666667,0.0666666666666667,1.31666666666667,20642.7514905,20643.534307625,13,20642.817533833,20642.88425975,20643.557676375,20644.867707583,1,0.782817125000292
120,44,4,categorization,0,kitchen,SHINEd_sun_aehawpgmrlhlvcow.tif,81,0.0666666666666667,0.0666666666666667,1.61666666666667,20644.887476958,20646.148799583,9,20644.954344792,20645.020184667,20646.1786295,20647.78867325,1,1.26132262499959
120,45,4,categorization,0,kitchen,SHINEd_sun_acgtpgfybqjmzeyw.tif,75,0.0666666666666667,0.0666666666666667,1.15,20647.8065595,20648.99826325,9,20647.874831917,20647.933218708,20649.023732542,20650.167103958,1,1.19170374999885
120,46,4,categorization,0,bathroom,SHINEd_sun_ahaulkltgpkeeemi.tif,26,0.0666666666666667,0.0666666666666667,1.25,20650.176782042,20651.206533667,13,20650.245405333,20650.3090905,20651.232870833,20652.476254833,1,1.02975162499934
120,47,4,categorization,0,kitchen,SHINEd_sun_avszsnwsbuqfgzbn.tif,105,0.0666666666666667,0.0666666666666667,1.1,20652.493199208,20653.149502208,9,20652.561256625,20652.62581325,20653.164463792,20654.257850375,1,0.65630300000339
120,48,4,categorization,0,bathroom,SHINEd_sun_awnqiikzaispgmwo.tif,56,0.0666666666666667,0.0666666666666667,0.9,20654.266058083,20655.005228417,13,20654.327909583,20654.388787625,20655.023948917,20655.917289625,1,0.739170333999937
120,49,4,categorization,0,kitchen,SHINEd_sun_aadbddgrdsjugojn.tif,64,0.0666666666666667,0.0666666666666667,1.3,20655.922334958,20656.732917667,9,20655.984160625,20656.045070333,20656.747019833,20658.040387625,1,0.8105827090003
120,50,4,categorization,0,bathroom,SHINEd_sun_alotolagknyrgtsk.tif,35,0.0666666666666667,0.0666666666666667,1.25,20658.058034542,20658.82058775,9,20658.125079208,20658.190763208,20658.847581,20660.090960417,0,0.762553208001918
120,1,5,categorization,0,bathroom,SHINEd_sun_auzqhkafidnkrwmo.tif,54,0.0666666666666667,0.0666666666666667,1.7,20690.938748792,20691.885426333,13,20691.001180708,20691.061749958,20691.897178583,20693.590556333,1,0.946677541000099
120,2,5,categorization,0,bathroom,SHINEd_sun_apkruvsevgegsdwp.tif,44,0.0666666666666667,0.0666666666666667,1.81666666666667,20693.604394958,20694.402305083,13,20693.672674875,20693.735463042,20694.425561083,20696.235606625,1,0.797910124998452
120,3,5,categorization,0,kitchen,SHINEd_labelme_rykdqxenmhulbdn.tif,63,0.0666666666666667,0.0666666666666667,1.23333333333333,20696.252303625,20697.669231417,13,20696.318531625,20696.384112,20697.686971375,20698.913682625,0,1.41692779200093
120,4,5,categorization,0,bathroom,SHINEd_sun_alkosphxlxwjwgjd.tif,34,0.0666666666666667,0.0666666666666667,1.4,20698.929907042,20699.607373042,13,20698.99637425,20699.062398292,20699.63558625,20701.028967583,1,0.677466000001004
120,5,5,categorization,0,kitchen,SHINEd_sun_agzzivivdpnawacl.tif,89,0.0666666666666667,0.0666666666666667,1.03333333333333,20701.046256375,20701.694526292,13,20701.112568417,20701.17869025,20701.71821275,20702.7449205,0,0.648269917001016
120,6,5,categorization,0,bathroom,SHINEd_sun_axldvoqbuvuggfmq.tif,57,0.0666666666666667,0.0666666666666667,1.38333333333333,20702.762128708,20703.836841625,13,20702.829846417,20702.894653208,20703.847093917,20705.223802417,1,1.07471291700131
120,7,5,categorization,0,kitchen,SHINEd_sun_abdenxonkemggwsq.tif,69,0.0666666666666667,0.0666666666666667,2,20705.240030333,20706.606528583,13,20705.307981375,20705.372845125,20706.630712958,20708.624102,0,1.36649825000131
120,8,5,categorization,0,bathroom,SHINEd_sun_aggnnqpdorgxpvce.tif,21,0.0666666666666667,0.0666666666666667,1.85,20708.640979125,20709.726380083,13,20708.7090165,20708.773375333,20709.746555667,20711.589941125,1,1.08540095799981
120,9,5,categorization,0,bathroom,SHINEd_sun_axxbkopsgyouuebh.tif,58,0.0666666666666667,0.0666666666666667,0.816666666666667,20711.606861958,20712.34917925,13,20711.673844292,20711.739341417,20712.379208417,20713.189212625,1,0.742317291998916
120,10,5,categorization,0,kitchen,SHINEd_sun_aypmqwcualkenuoe.tif,109,0.0666666666666667,0.0666666666666667,1.85,20713.195076958,20714.060958708,9,20713.256888625,20713.317754167,20714.069631125,20715.912995958,1,0.865881749999971
120,11,5,categorization,0,bathroom,SHINEd_sun_acgyywnybuveqsro.tif,18,0.0666666666666667,0.0666666666666667,0.733333333333333,20715.925563333,20716.6306745,13,20715.990446583,20716.057952042,20716.64691875,20717.373589333,1,0.705111167000723
120,12,5,categorization,0,kitchen,SHINEd_sun_ahspylgoovwmwvgk.tif,93,0.0666666666666667,0.0666666666666667,0.716666666666667,20717.381598,20718.541354083,9,20717.443409583,20717.504329125,20718.556141125,20719.266144708,1,1.15975608300141
120,13,5,categorization,0,bathroom,SHINEd_sun_aunuadmjocsddsrl.tif,52,0.0666666666666667,0.0666666666666667,0.833333333333333,20719.271202542,20720.404616708,13,20719.333050458,20719.393950917,20720.412620417,20721.239290625,1,1.13341416600088
120,14,5,categorization,0,bathroom,SHINEd_sun_ahijqszoswveeyji.tif,28,0.0666666666666667,0.0666666666666667,0.95,20721.244701042,20723.1252475,13,20721.306737958,20721.367372875,20723.136101,20724.079438583,1,1.88054645800003
120,15,5,categorization,0,bathroom,SHINEd_sun_ahcvzmoyaycdoftf.tif,27,0.0666666666666667,0.0666666666666667,1.96666666666667,20724.084485458,20724.836925708,13,20724.146277375,20724.207171292,20724.842562875,20726.802614375,1,0.75244025000211
120,16,5,categorization,0,kitchen,SHINEd_sun_aggjlwcdjsjcaemh.tif,86,0.0666666666666667,0.0666666666666667,1.86666666666667,20726.819248167,20728.668858083,9,20726.88571875,20726.951946583,20728.687551958,20730.547598917,1,1.84960991600019
120,17,5,categorization,0,bathroom,SHINEd_sun_avhrdrntsqrjzccq.tif,55,0.0666666666666667,0.0666666666666667,1.51666666666667,20730.564066292,20731.389857,13,20730.6305295,20730.69807025,20731.403449125,20732.913487542,1,0.82579070799693
120,18,5,categorization,0,bathroom,SHINEd_sun_acegryoqftbzowsg.tif,17,0.0666666666666667,0.0666666666666667,1.3,20732.93551525,20733.685324708,13,20733.002640625,20733.06804175,20733.707865208,20735.001249333,1,0.749809458000527
120,19,5,categorization,0,bathroom,SHINEd_sun_aspsyogrekjtfozg.tif,50,0.0666666666666667,0.0666666666666667,1.91666666666667,20735.021979,20735.680597333,13,20735.090000333,20735.157230167,20735.696972542,20737.607013542,1,0.658618333000049
120,20,5,categorization,0,bathroom,SHINEd_sun_agguqiubmwhqqunb.tif,22,0.0666666666666667,0.0666666666666667,1.23333333333333,20737.624903125,20738.372243083,13,20737.693465667,20737.75749425,20738.398347583,20739.625052833,1,0.74733995799761
120,21,5,categorization,0,bathroom,SHINEd_sun_aofnryafpsjimzsb.tif,40,0.0666666666666667,0.0666666666666667,0.866666666666667,20739.645392792,20740.272987,13,20739.712340583,20739.778161458,20740.30272275,20741.162753042,1,0.627594207999209
120,22,5,categorization,0,kitchen,SHINEd_sun_ahpczsiumwwocjkv.tif,92,0.0666666666666667,0.0666666666666667,0.8,20741.180286875,20741.757464708,13,20741.247964167,20741.312806083,20741.76495275,20742.558292042,0,0.57717783300177
120,23,5,categorization,0,kitchen,SHINEd_sun_aymvwlarqodbwuoc.tif,108,0.0666666666666667,0.0666666666666667,1.51666666666667,20742.564436792,20743.380619542,9,20742.626234,20742.687091917,20743.389097667,20744.89914,1,0.816182750000735
120,24,5,categorization,0,kitchen,SHINEd_sun_auaiucuqpdausiva.tif,102,0.0666666666666667,0.0666666666666667,1.18333333333333,20744.917696875,20746.053057167,9,20744.984185417,20745.049863625,20746.072429833,20747.249139417,1,1.13536029199895
120,25,5,categorization,0,kitchen,SHINEd_sun_akcjzhbbjlbogpdi.tif,99,0.0666666666666667,0.0666666666666667,1.6,20747.258892,20748.505053708,9,20747.326892125,20747.391266042,20748.532687458,20750.126052167,1,1.24616170799709
120,26,5,categorization,0,kitchen,SHINEd_sun_azmutvzbxypaceni.tif,110,0.0666666666666667,0.0666666666666667,1.56666666666667,20750.144367333,20751.151646458,13,20750.21334825,20750.276936875,20751.165797042,20752.725841375,0,1.00727912500224
120,27,5,categorization,0,kitchen,SHINEd_sun_akchetnepxlcxhsu.tif,98,0.0666666666666667,0.0666666666666667,1.36666666666667,20752.744215833,20753.524506792,13,20752.811396917,20752.876424542,20753.549644375,20754.909680458,0,0.780290958999103
120,28,5,categorization,0,kitchen,SHINEd_sun_acgtpgfybqjmzeyw.tif,75,0.0666666666666667,0.0666666666666667,1.53333333333333,20754.927691792,20756.408914,9,20754.994421958,20755.060048583,20756.434639167,20757.961344042,1,1.48122220799996
120,29,5,categorization,0,kitchen,SHINEd_sun_ajkqhtgcbgpcwrwn.tif,97,0.0666666666666667,0.0666666666666667,1.4,20757.971606958,20759.78124575,9,20758.040206458,20758.104271667,20759.790132292,20761.183507708,1,1.80963879200135
120,30,5,categorization,0,kitchen,SHINEd_labelme_kxvouciolcpqplr.tif,62,0.0666666666666667,0.0666666666666667,1.06666666666667,20761.202086042,20762.560932958,9,20761.269035375,20761.33492,20762.577307667,20763.63735225,1,1.35884691599858
120,31,5,categorization,0,bathroom,SHINEd_sun_apjevzvycyhuqghb.tif,43,0.0666666666666667,0.0666666666666667,1.63333333333333,20763.648490125,20764.801164875,9,20763.713411417,20763.779916042,20764.819700792,20766.446408375,0,1.15267474999928
120,32,5,categorization,0,bathroom,SHINEd_sun_apkxzenqapsujocq.tif,45,0.0666666666666667,0.0666666666666667,1.8,20766.467287625,20767.392175125,13,20766.534149875,20766.599545583,20767.4053785,20769.19875725,1,0.924887500001205
120,33,5,categorization,0,bathroom,SHINEd_sun_apmqjbnwghzuhhzh.tif,46,0.0666666666666667,0.0666666666666667,1.53333333333333,20769.219223125,20770.007423667,13,20769.285488833,20769.352004458,20770.024123708,20771.550832417,1,0.788200541999686
120,34,5,categorization,0,bathroom,SHINEd_sun_aleqenyvunhactkl.tif,32,0.0666666666666667,0.0666666666666667,0.766666666666667,20771.569806958,20772.365868417,13,20771.636718583,20771.702574125,20772.39241,20773.152416125,1,0.796061459001066
120,35,5,categorization,0,bathroom,SHINEd_sun_akiytfaagpdsphgz.tif,31,0.0666666666666667,0.0666666666666667,1.86666666666667,20773.1583715,20773.869196625,13,20773.220065333,20773.281034375,20773.883488083,20775.74353325,1,0.710825124999246
120,36,5,categorization,0,bathroom,SHINEd_sun_aqrpegblszgcoujh.tif,48,0.0666666666666667,0.0666666666666667,1.13333333333333,20775.760503167,20776.462993,13,20775.828645583,20775.8929575,20776.48258925,20777.609306583,1,0.702489833001891
120,37,5,categorization,0,kitchen,SHINEd_sun_aunzlwrbjumxhwdj.tif,103,0.0666666666666667,0.0666666666666667,1.73333333333333,20777.618455292,20778.60950225,9,20777.684404,20777.750968958,20778.623301458,20780.350015875,1,0.991046958002698
120,38,5,categorization,0,bathroom,SHINEd_sun_amzlamotzwfkwjco.tif,37,0.0666666666666667,0.0666666666666667,0.766666666666667,20780.367609167,20781.173391583,13,20780.43464825,20780.500472875,20781.18973125,20781.949735375,1,0.80578241600233
120,39,5,categorization,0,bathroom,SHINEd_sun_azqyogdvyhahyram.tif,60,0.0666666666666667,0.0666666666666667,1.85,20781.955073,20783.076954625,13,20782.016769292,20782.077726417,20783.096262417,20784.939642458,1,1.12188162500024
120,40,5,categorization,0,bathroom,SHINEd_labelme_sfxiulhjbhlyiyt.tif,11,0.0666666666666667,0.0666666666666667,0.966666666666667,20784.956295625,20786.564776,13,20785.024122708,20785.088521625,20786.574722625,20787.534728292,1,1.60848037499818
120,41,5,categorization,0,bathroom,SHINEd_sun_awnqiikzaispgmwo.tif,56,0.0666666666666667,0.0666666666666667,1.06666666666667,20787.539579292,20788.300745458,13,20787.6013385,20787.662262,20788.314133667,20789.3741735,1,0.761166166001203
120,42,5,categorization,0,kitchen,SHINEd_sun_abftihopvusyfakt.tif,71,0.0666666666666667,0.0666666666666667,1.38333333333333,20789.385654417,20790.590461417,13,20789.451306583,20789.515520583,20790.605251833,20791.981974375,0,1.20480699999825
120,43,5,categorization,0,kitchen,SHINEd_sun_avszsnwsbuqfgzbn.tif,105,0.0666666666666667,0.0666666666666667,0.766666666666667,20791.992359167,20792.82954275,9,20792.059725625,20792.124791708,20792.848005958,20793.608054917,1,0.837183583000296
120,44,5,categorization,0,bathroom,SHINEd_sun_ajlawzvmubibwbpy.tif,30,0.0666666666666667,0.0666666666666667,0.866666666666667,20793.624381625,20794.588926458,13,20793.69109725,20793.74897225,20794.601411417,20795.461417167,1,0.964544833001128
120,45,5,categorization,0,bathroom,SHINEd_sun_aavhrsfjbserjtht.tif,13,0.0666666666666667,0.0666666666666667,1.25,20795.466620125,20796.205035667,13,20795.528455917,20795.589107833,20796.224724375,20797.468088,1,0.738415542000439
120,46,5,categorization,0,kitchen,SHINEd_sun_auticobqsbwgoppi.tif,104,0.0666666666666667,0.0666666666666667,1.03333333333333,20797.485072208,20798.451896042,13,20797.551516875,20797.617533417,20798.473956083,20799.500658875,0,0.966823833998205
120,47,5,categorization,0,kitchen,SHINEd_sun_agubuxuukhzyzpdp.tif,88,0.0666666666666667,0.0666666666666667,0.783333333333333,20799.516288958,20801.636916542,13,20799.58095375,20799.64733425,20801.650211667,20802.426882125,0,2.12062758400134
120,48,5,categorization,0,bathroom,SHINEd_sun_abapwbhyhkfixyex.tif,14,0.0666666666666667,0.0666666666666667,0.7,20802.432023708,20803.244233917,9,20802.493751458,20802.55469925,20803.256677542,20803.950014333,0,0.812210209001933
120,49,5,categorization,0,bathroom,SHINEd_sun_aapitsgbtktqubfy.tif,12,0.0666666666666667,0.0666666666666667,1.75,20803.95482875,20804.69310175,13,20804.016529208,20804.077610042,20804.696216542,20806.4395915,1,0.738272999999026
120,50,5,categorization,0,kitchen,SHINEd_sun_aadbddgrdsjugojn.tif,64,0.0666666666666667,0.0666666666666667,1.36666666666667,20806.456286958,20808.084416667,9,20806.524516167,20806.588728667,20808.091060833,20809.451098792,1,1.62812970899904
120,1,6,categorization,0,kitchen,SHINEd_sun_aixorpehvfykdynp.tif,95,0.0666666666666667,0.0666666666666667,0.966666666666667,20844.932732042,20846.004691583,13,20844.995298792,20845.055328583,20846.024008333,20846.984012375,0,1.07195954099734
120,2,6,categorization,0,kitchen,SHINEd_sun_aamedkxepzlwuxes.tif,65,0.0666666666666667,0.0666666666666667,1.73333333333333,20846.98932425,20848.348491667,9,20847.051108333,20847.112097333,20848.364319042,20850.091012917,1,1.35916741699839
120,3,6,categorization,0,bathroom,SHINEd_sun_aghyqhbptboemmoq.tif,23,0.0666666666666667,0.0666666666666667,1.91666666666667,20850.107353,20850.965540542,13,20850.175300208,20850.239148792,20850.995275958,20852.905320958,1,0.85818754200227
120,4,6,categorization,0,bathroom,SHINEd_sun_atstyziqcmkahyxk.tif,51,0.0666666666666667,0.0666666666666667,0.766666666666667,20852.922436417,20853.625211333,13,20852.9891475,20853.054037333,20853.643735042,20854.403740667,1,0.702774916000635
120,5,6,categorization,0,kitchen,SHINEd_sun_acwjdupvyjsugpay.tif,76,0.0666666666666667,0.0666666666666667,0.916666666666667,20854.409693917,20855.100121,9,20854.471325333,20854.532378708,20855.11756675,20856.027570625,1,0.690427082998212
120,6,6,categorization,0,kitchen,SHINEd_sun_ajcbwwvdlsvjyzje.tif,96,0.0666666666666667,0.0666666666666667,1.18333333333333,20856.032432458,20857.82102275,9,20856.09432225,20856.155112167,20857.840665417,20859.017382375,1,1.78859029199884
120,7,6,categorization,0,kitchen,SHINEd_sun_aarfiyshqohlwkmo.tif,67,0.0666666666666667,0.0666666666666667,1.8,20859.027987208,20859.860799833,9,20859.094354375,20859.160307375,20859.883583042,20861.676960292,1,0.832812625001679
120,8,6,categorization,0,kitchen,SHINEd_sun_ahdycvpopffkzzsu.tif,90,0.0666666666666667,0.0666666666666667,0.883333333333333,20861.694750958,20862.520570292,9,20861.7613055,20861.827039792,20862.550807875,20863.427478833,1,0.825819334000698
120,9,6,categorization,0,kitchen,SHINEd_sun_adgqasybjyktddhj.tif,78,0.0666666666666667,0.0666666666666667,1.83333333333333,20863.432528792,20864.252918208,9,20863.494330292,20863.555176208,20864.257045125,20866.083775708,1,0.820389415999671
120,10,6,categorization,0,kitchen,SHINEd_sun_aaxxjlsuzvqlgylf.tif,68,0.0666666666666667,0.0666666666666667,1.76666666666667,20866.101231292,20866.917613583,9,20866.167613083,20866.233652042,20866.9402025,20868.700237208,1,0.816382290999172
120,11,6,categorization,0,kitchen,SHINEd_sun_awcpdzzznmweyyhv.tif,106,0.0666666666666667,0.0666666666666667,0.983333333333333,20868.717818,20869.460865208,9,20868.784572875,20868.850333542,20869.490171417,20870.466842292,1,0.743047207997733
120,12,6,categorization,0,bathroom,SHINEd_sun_agrwbmhcpmfuwmsg.tif,24,0.0666666666666667,0.0666666666666667,0.883333333333333,20870.471944583,20871.332494417,9,20870.533703083,20870.594737167,20871.346779917,20872.223449875,0,0.860549834000267
120,13,6,categorization,0,bathroom,SHINEd_sun_aclfzgynxzxlbepz.tif,19,0.0666666666666667,0.0666666666666667,0.85,20872.228322125,20875.052211833,13,20872.289982208,20872.350913583,20875.070359958,20875.913696875,1,2.82388970800093
120,14,6,categorization,0,kitchen,SHINEd_sun_aenotlpyftoioydp.tif,82,0.0666666666666667,0.0666666666666667,0.733333333333333,20875.918591958,20877.060326833,9,20875.980370583,20876.041281292,20877.077016625,20877.803687708,1,1.14173487500011
120,15,6,categorization,0,kitchen,SHINEd_sun_acfmftudsenhrfhy.tif,74,0.0666666666666667,0.0666666666666667,1.88333333333333,20877.808509458,20878.67621925,9,20877.870230792,20877.931147458,20878.683182833,20880.559887,1,0.867709792000824
120,16,6,categorization,0,kitchen,SHINEd_sun_aqeaevwwwjoqhzvl.tif,101,0.0666666666666667,0.0666666666666667,0.816666666666667,20880.576974042,20881.6241165,9,20880.643651667,20880.709227792,20881.648871125,20882.458874792,1,1.04714245799914
120,17,6,categorization,0,kitchen,SHINEd_labelme_brsyyvweiuaazfr.tif,61,0.0666666666666667,0.0666666666666667,1.9,20882.463995167,20883.532636667,9,20882.525813042,20882.58665325,20883.538693083,20885.432075417,1,1.06864150000183
120,18,6,categorization,0,kitchen,SHINEd_sun_acxkpeoqbwcxfvip.tif,77,0.0666666666666667,0.0666666666666667,0.983333333333333,20885.45047525,20886.4413465,9,20885.516887125,20885.58325775,20886.455683958,20887.432354292,1,0.990871250000055
120,19,6,categorization,0,bathroom,SHINEd_sun_anhioqovhscjqqwb.tif,38,0.0666666666666667,0.0666666666666667,0.75,20887.43737025,20888.323893583,9,20887.499116542,20887.560032917,20888.328520208,20889.071856625,0,0.886523332999786
120,20,6,categorization,0,bathroom,SHINEd_sun_apynckhmoftszqoq.tif,47,0.0666666666666667,0.0666666666666667,1.6,20889.076702542,20890.6768995,9,20889.138481292,20889.199308292,20890.685512792,20892.278896875,0,1.60019695799929
120,21,6,categorization,0,kitchen,SHINEd_sun_ahywdevtimnqcsln.tif,94,0.0666666666666667,0.0666666666666667,1.58333333333333,20892.299315042,20893.169038875,9,20892.365607708,20892.431800708,20893.18819875,20894.764905875,1,0.869723832998716
120,22,6,categorization,0,kitchen,SHINEd_sun_abrcnpqqhmjwekyf.tif,73,0.0666666666666667,0.0666666666666667,1.11666666666667,20894.783441833,20895.9512645,9,20894.850095583,20894.915872333,20895.970820208,20897.080864667,1,1.16782266700102
120,23,6,categorization,0,kitchen,SHINEd_sun_abdxkyyxwfskuaqb.tif,70,0.0666666666666667,0.0666666666666667,1.53333333333333,20897.091252833,20897.919473625,9,20897.155806625,20897.223473333,20897.927012958,20899.453711417,1,0.828220791998319
120,24,6,categorization,0,kitchen,SHINEd_sun_afuyedyxivkhecmu.tif,85,0.0666666666666667,0.0666666666666667,1.48333333333333,20899.470783042,20900.28956525,9,20899.537239875,20899.603110125,20900.308549833,20901.785255042,1,0.818782207999902
120,25,6,categorization,0,bathroom,SHINEd_sun_apeeialkgkuxddgh.tif,42,0.0666666666666667,0.0666666666666667,1.1,20901.803764292,20902.501975042,13,20901.870312167,20901.930814792,20902.520321167,20903.613696333,1,0.698210750000726
120,26,6,categorization,0,bathroom,SHINEd_sun_alotolagknyrgtsk.tif,35,0.0666666666666667,0.0666666666666667,0.933333333333333,20903.623011833,20904.2901465,9,20903.688575,20903.756579542,20904.313236833,20905.239939083,0,0.667134667000937
120,27,6,categorization,0,kitchen,SHINEd_sun_ahljzhgcdpomplvg.tif,91,0.0666666666666667,0.0666666666666667,0.816666666666667,20905.256718333,20905.972344708,9,20905.32304375,20905.389159208,20905.991254167,20906.801259292,1,0.715626375000284
120,28,6,categorization,0,bathroom,SHINEd_sun_ahqjwnzgolcaoidx.tif,29,0.0666666666666667,0.0666666666666667,1.78333333333333,20906.806056625,20907.899906542,9,20906.867647583,20906.928752042,20907.91443,20909.691132042,0,1.09384991700063
120,29,6,categorization,0,kitchen,SHINEd_sun_aapllqyqlykszopd.tif,66,0.0666666666666667,0.0666666666666667,0.766666666666667,20909.707382208,20910.499505,9,20909.773928417,20909.839692542,20910.529761333,20911.289766292,1,0.792122792001464
120,30,6,categorization,0,kitchen,SHINEd_sun_amjjdeyrggfqgmom.tif,100,0.0666666666666667,0.0666666666666667,1.45,20911.296962583,20912.243852458,9,20911.358741333,20911.419616375,20912.2547255,20913.6980975,1,0.946889874998305
120,31,6,categorization,0,kitchen,SHINEd_sun_axyyrmzcupyhlivc.tif,107,0.0666666666666667,0.0666666666666667,0.75,20913.716812417,20914.564638833,9,20913.783344875,20913.848943625,20914.588721167,20915.33206,1,0.847826416000316
120,32,6,categorization,0,bathroom,SHINEd_sun_agyqfjcfkdcydepw.tif,25,0.0666666666666667,0.0666666666666667,1.36666666666667,20915.337829208,20915.996412292,9,20915.399544875,20915.460541792,20916.012390375,20917.372424542,0,0.658583083997655
120,33,6,categorization,0,bathroom,SHINEd_sun_abjtwfukuwddzted.tif,15,0.0666666666666667,0.0666666666666667,0.75,20917.388971458,20918.133906375,9,20917.455654083,20917.521281875,20918.161518875,20918.90489825,0,0.744934916998318
120,34,6,categorization,0,bathroom,SHINEd_sun_asfwthctfqerjvxr.tif,49,0.0666666666666667,0.0666666666666667,0.783333333333333,20918.920650542,20919.772467583,9,20918.986700333,20919.047727542,20919.78325525,20920.559927042,0,0.851817040998867
120,35,6,categorization,0,kitchen,SHINEd_sun_aegoxogugdkwpmpj.tif,80,0.0666666666666667,0.0666666666666667,1.11666666666667,20920.564969792,20921.332168667,9,20920.626607042,20920.687663833,20921.339908167,20922.449940042,1,0.767198874997121
120,36,6,categorization,0,bathroom,SHINEd_sun_aljolscmmzydegqp.tif,33,0.0666666666666667,0.0666666666666667,0.766666666666667,20922.459491417,20923.423684792,9,20922.524261042,20922.591879708,20923.448486208,20924.208531375,0,0.964193374999013
120,37,6,categorization,0,kitchen,SHINEd_sun_aeqdocilnnpuvuhx.tif,83,0.0666666666666667,0.0666666666666667,0.716666666666667,20924.224877042,20925.004631333,9,20924.291464167,20924.357468458,20925.010130125,20925.720136125,1,0.779754290997516
120,38,6,categorization,0,bathroom,SHINEd_sun_aoybiabnpadelefl.tif,41,0.0666666666666667,0.0666666666666667,1.33333333333333,20925.725754042,20926.564469333,9,20925.787545625,20925.84843,20926.584142583,20927.910844417,0,0.838715290999971
120,39,6,categorization,0,bathroom,SHINEd_sun_acduarbnmmoglmiv.tif,16,0.0666666666666667,0.0666666666666667,1.75,20927.923881292,20928.727393083,9,20927.988961667,20928.056270708,20928.745895708,20930.489259167,0,0.803511791000346
120,40,6,categorization,0,kitchen,SHINEd_sun_aehawpgmrlhlvcow.tif,81,0.0666666666666667,0.0666666666666667,1.13333333333333,20930.506577,20931.389153125,9,20930.573592,20930.639666875,20931.413318208,20932.540027708,1,0.882576125000924
120,41,6,categorization,0,kitchen,SHINEd_sun_aexklacwqwezaorf.tif,84,0.0666666666666667,0.0666666666666667,1.63333333333333,20932.550694417,20933.287211917,9,20932.615646333,20932.683151292,20933.306265125,20934.932981125,1,0.736517499997717
120,42,6,categorization,0,kitchen,SHINEd_sun_agorklincwxrdtga.tif,87,0.0666666666666667,0.0666666666666667,1.43333333333333,20934.951239208,20935.588723458,9,20935.018217167,20935.083698458,20935.605284833,20937.031987833,1,0.637484250000853
120,43,6,categorization,0,bathroom,SHINEd_sun_afcoljnjfoxjtgja.tif,20,0.0666666666666667,0.0666666666666667,1.83333333333333,20937.050248708,20937.664886625,9,20937.117089125,20937.18294925,20937.689835042,20939.5165335,0,0.614637916998618
120,44,6,categorization,0,bathroom,SHINEd_sun_ahaulkltgpkeeemi.tif,26,0.0666666666666667,0.0666666666666667,1.93333333333333,20939.534345542,20940.496594417,13,20939.601136625,20939.666770292,20940.523930833,20942.450648167,1,0.962248874999204
120,45,6,categorization,0,bathroom,SHINEd_sun_anryaplzeujmzfkd.tif,39,0.0666666666666667,0.0666666666666667,1.26666666666667,20942.469606167,20943.422839375,13,20942.536689292,20942.602558875,20943.442695875,20944.702748042,1,0.95323320800162
120,46,6,categorization,0,bathroom,SHINEd_sun_ambriybtogmepttm.tif,36,0.0666666666666667,0.0666666666666667,1.86666666666667,20944.720356708,20945.524759917,9,20944.787788667,20944.852992083,20945.542990333,20947.403036833,0,0.804403209000156
120,47,6,categorization,0,kitchen,SHINEd_sun_abpwyqmlzafvklqo.tif,72,0.0666666666666667,0.0666666666666667,1.41666666666667,20947.420374042,20948.385746833,9,20947.487574208,20947.5529855,20948.410303125,20949.820340417,1,0.965372790997208
120,48,6,categorization,0,bathroom,SHINEd_sun_axyrejkiiaqiurjk.tif,59,0.0666666666666667,0.0666666666666667,1.11666666666667,20949.838609583,20950.752266417,9,20949.905872417,20949.9697615,20950.776447292,20951.886495917,0,0.913656833999994
120,49,6,categorization,0,kitchen,SHINEd_sun_admlmbcdswaszruo.tif,79,0.0666666666666667,0.0666666666666667,1.8,20951.898041208,20952.583318875,9,20951.963340333,20952.029000125,20952.602173083,20954.395556958,1,0.685277666998445
120,50,6,categorization,0,bathroom,SHINEd_sun_ausgutylgojavyoq.tif,53,0.0666666666666667,0.0666666666666667,1.25,20954.415936208,20955.2485855,13,20954.482881625,20954.548613083,20955.272536917,20956.515916917,1,0.832649292002316
120,1,7,categorization,0,bathroom,SHINEd_sun_apkxzenqapsujocq.tif,45,0.0666666666666667,0.0666666666666667,0.883333333333333,20975.081554292,20975.93238425,13,20975.144070333,20975.204236125,20975.939515958,20976.816186792,1,0.850829958002578
120,2,7,categorization,0,kitchen,SHINEd_sun_aadbddgrdsjugojn.tif,64,0.0666666666666667,0.0666666666666667,1.03333333333333,20976.821223292,20977.612133708,9,20976.882839333,20976.943834625,20977.629055875,20978.655770458,1,0.790910415998951
120,3,7,categorization,0,bathroom,SHINEd_sun_anhioqovhscjqqwb.tif,38,0.0666666666666667,0.0666666666666667,1.06666666666667,20978.668830333,20979.422384125,13,20978.733391458,20978.800051333,20979.439417667,20980.499468,1,0.753553791997547
120,4,7,categorization,0,kitchen,SHINEd_sun_agorklincwxrdtga.tif,87,0.0666666666666667,0.0666666666666667,0.833333333333333,20980.51633875,20981.171515167,9,20980.583055542,20980.649025833,20981.184266167,20982.010938042,1,0.655176416999893
120,5,7,categorization,0,bathroom,SHINEd_sun_aleqenyvunhactkl.tif,32,0.0666666666666667,0.0666666666666667,0.716666666666667,20982.016044042,20982.891722833,13,20982.077891292,20982.138682083,20982.907067167,20983.617072292,1,0.875678790998791
120,6,7,categorization,0,bathroom,SHINEd_sun_aoybiabnpadelefl.tif,41,0.0666666666666667,0.0666666666666667,0.733333333333333,20983.622722542,20984.420229,13,20983.684427042,20983.74589175,20984.431139083,20985.157809292,1,0.797506457998679
120,7,7,categorization,0,bathroom,SHINEd_sun_abjtwfukuwddzted.tif,15,0.0666666666666667,0.0666666666666667,1.38333333333333,20985.163422667,20986.0683425,13,20985.225064667,20985.2860145,20986.088024083,20987.464732708,1,0.90491983299944
120,8,7,categorization,0,bathroom,SHINEd_sun_atstyziqcmkahyxk.tif,51,0.0666666666666667,0.0666666666666667,0.9,20987.48297925,20988.118364375,13,20987.54944025,20987.614980708,20988.137883583,20989.031251458,1,0.635385125002358
120,9,7,categorization,0,bathroom,SHINEd_sun_alotolagknyrgtsk.tif,35,0.0666666666666667,0.0666666666666667,0.816666666666667,20989.048100542,20989.843551333,9,20989.114454375,20989.180767417,20989.850140125,20990.660145292,0,0.795450790999894
120,10,7,categorization,0,kitchen,SHINEd_sun_aqeaevwwwjoqhzvl.tif,101,0.0666666666666667,0.0666666666666667,0.85,20990.665802792,20991.804122917,9,20990.727554583,20990.788486875,20991.823693958,20992.667031208,1,1.13832012500279
120,11,7,categorization,0,kitchen,SHINEd_sun_akchetnepxlcxhsu.tif,98,0.0666666666666667,0.0666666666666667,1.6,20992.672602583,20993.372425625,13,20992.734389917,20992.795303875,20993.380371292,20994.973754792,0,0.69982304199948
120,12,7,categorization,0,kitchen,SHINEd_sun_afuyedyxivkhecmu.tif,85,0.0666666666666667,0.0666666666666667,1.75,20994.990510667,20995.8926335,9,20995.058712333,20995.12316875,20995.912617458,20997.655993833,1,0.90212283299843
120,13,7,categorization,0,bathroom,SHINEd_sun_aqrpegblszgcoujh.tif,48,0.0666666666666667,0.0666666666666667,1.1,20997.668856208,20998.42826475,13,20997.737683292,20997.801742333,20998.458611042,20999.551983833,1,0.75940854199871
120,14,7,categorization,0,kitchen,SHINEd_sun_aamedkxepzlwuxes.tif,65,0.0666666666666667,0.0666666666666667,1.46666666666667,20999.564712542,21001.068864083,9,20999.629750708,20999.697344875,21001.090220792,21002.550273583,1,1.50415154100119
120,15,7,categorization,0,bathroom,SHINEd_sun_apkruvsevgegsdwp.tif,44,0.0666666666666667,0.0666666666666667,1.25,21002.568969667,21003.321244167,13,21002.635927042,21002.702191375,21003.342555708,21004.585940167,1,0.752274499998748
120,16,7,categorization,0,kitchen,SHINEd_sun_aehawpgmrlhlvcow.tif,81,0.0666666666666667,0.0666666666666667,1.13333333333333,21004.603617125,21005.504977375,9,21004.672154167,21004.736178542,21005.526118542,21006.652832167,1,0.901360249998106
120,17,7,categorization,0,kitchen,SHINEd_sun_aaxxjlsuzvqlgylf.tif,68,0.0666666666666667,0.0666666666666667,1.33333333333333,21006.664419583,21008.083097083,9,21006.729798542,21006.797103417,21008.1059955,21009.432702042,1,1.41867749999801
120,18,7,categorization,0,kitchen,SHINEd_sun_aeqdocilnnpuvuhx.tif,83,0.0666666666666667,0.0666666666666667,1.86666666666667,21009.451761458,21010.428130875,9,21009.518670792,21009.584733167,21010.458633125,21012.318665333,1,0.97636941699966
120,19,7,categorization,0,bathroom,SHINEd_labelme_sfxiulhjbhlyiyt.tif,11,0.0666666666666667,0.0666666666666667,1.58333333333333,21012.336450917,21017.565647167,13,21012.40495575,21012.469593875,21017.589019875,21019.165740333,1,5.22919625000213
120,20,7,categorization,0,kitchen,SHINEd_sun_auticobqsbwgoppi.tif,104,0.0666666666666667,0.0666666666666667,1.05,21019.183939875,21019.958444208,13,21019.250966667,21019.316481583,21019.970879625,21021.014251583,0,0.774504332999641
120,21,7,categorization,0,kitchen,SHINEd_sun_acwjdupvyjsugpay.tif,76,0.0666666666666667,0.0666666666666667,0.9,21021.02571225,21021.630048583,9,21021.090959625,21021.156936125,21021.6468955,21022.540264792,1,0.604336332999083
120,22,7,categorization,0,kitchen,SHINEd_sun_ahdycvpopffkzzsu.tif,90,0.0666666666666667,0.0666666666666667,0.7,21022.552103833,21023.363709958,9,21022.6174945,21022.684939125,21023.370586417,21024.063924833,1,0.811606125000253
120,23,7,categorization,0,kitchen,SHINEd_sun_ahljzhgcdpomplvg.tif,91,0.0666666666666667,0.0666666666666667,0.933333333333333,21024.068925917,21024.787500042,9,21024.130656458,21024.191638875,21024.7935845,21025.720255875,1,0.718574124999577
120,24,7,categorization,0,bathroom,SHINEd_sun_auzqhkafidnkrwmo.tif,54,0.0666666666666667,0.0666666666666667,1.95,21025.725176542,21026.835641375,13,21025.786736917,21025.847775125,21026.850265625,21028.793651333,1,1.11046483300015
120,25,7,categorization,0,bathroom,SHINEd_sun_apmqjbnwghzuhhzh.tif,46,0.0666666666666667,0.0666666666666667,1.06666666666667,21028.811986333,21030.163810083,13,21028.879984542,21028.944484833,21030.180581958,21031.240624333,1,1.35182374999931
120,26,7,categorization,0,bathroom,SHINEd_sun_afcoljnjfoxjtgja.tif,20,0.0666666666666667,0.0666666666666667,1.2,21031.2522015,21032.892098583,13,21031.316911833,21031.382703167,21032.90726075,21034.100614333,1,1.63989708300142
120,27,7,categorization,0,kitchen,SHINEd_sun_acfmftudsenhrfhy.tif,74,0.0666666666666667,0.0666666666666667,0.75,21034.115811083,21034.819535042,9,21034.183140042,21034.248400583,21034.83806225,21035.581437042,1,0.703723958999035
120,28,7,categorization,0,bathroom,SHINEd_sun_agyqfjcfkdcydepw.tif,25,0.0666666666666667,0.0666666666666667,0.816666666666667,21035.598368875,21037.171296,9,21035.665565333,21035.73103675,21037.184175,21037.994179167,0,1.57292712500202
120,29,7,categorization,0,bathroom,SHINEd_sun_anryaplzeujmzfkd.tif,39,0.0666666666666667,0.0666666666666667,1.96666666666667,21037.999007625,21040.3953255,9,21038.06095825,21038.121881625,21040.4073685,21042.36739925,0,2.39631787500184
120,30,7,categorization,0,kitchen,SHINEd_labelme_rykdqxenmhulbdn.tif,63,0.0666666666666667,0.0666666666666667,1.2,21042.385557708,21043.223645542,9,21042.452172833,21042.517871125,21043.240629083,21044.434017292,1,0.838087833999452
120,31,7,categorization,0,bathroom,SHINEd_sun_apeeialkgkuxddgh.tif,42,0.0666666666666667,0.0666666666666667,0.883333333333333,21044.450324792,21045.220042542,13,21044.5169615,21044.583269375,21045.239528958,21046.1162385,1,0.769717750001291
120,32,7,categorization,0,kitchen,SHINEd_sun_abftihopvusyfakt.tif,71,0.0666666666666667,0.0666666666666667,1.33333333333333,21046.13223925,21047.19629575,9,21046.198789,21046.264708917,21047.200435667,21048.527157083,1,1.06405649999942
120,33,7,categorization,0,bathroom,SHINEd_sun_axxbkopsgyouuebh.tif,58,0.0666666666666667,0.0666666666666667,1.45,21048.544232417,21049.636861792,13,21048.61049475,21048.67792975,21049.650236,21051.093600167,1,1.09262937500171
120,34,7,categorization,0,bathroom,SHINEd_sun_aclfzgynxzxlbepz.tif,19,0.0666666666666667,0.0666666666666667,1.15,21051.109689667,21051.827318417,13,21051.177702375,21051.242186417,21051.84855075,21052.991933125,1,0.717628750000586
120,35,7,categorization,0,bathroom,SHINEd_sun_apjevzvycyhuqghb.tif,43,0.0666666666666667,0.0666666666666667,0.966666666666667,21053.002501875,21054.581878208,9,21053.0695545,21053.134791125,21054.610754792,21055.570758833,0,1.57937633300025
120,36,7,categorization,0,bathroom,SHINEd_sun_aofnryafpsjimzsb.tif,40,0.0666666666666667,0.0666666666666667,1.45,21055.576496792,21056.420181208,13,21055.638297333,21055.699168625,21056.434679875,21057.878044458,1,0.843684415998723
120,37,7,categorization,0,bathroom,SHINEd_sun_ajlawzvmubibwbpy.tif,30,0.0666666666666667,0.0666666666666667,0.8,21057.893834958,21059.589158125,13,21057.958956042,21058.024540625,21059.610884292,21060.404221875,1,1.69532316700133
120,38,7,categorization,0,bathroom,SHINEd_sun_agrwbmhcpmfuwmsg.tif,24,0.0666666666666667,0.0666666666666667,1.45,21060.409623375,21062.147341292,9,21060.471429417,21060.5322835,21062.15104425,21063.5944205,0,1.73771791699983
120,39,7,categorization,0,kitchen,SHINEd_sun_aegoxogugdkwpmpj.tif,80,0.0666666666666667,0.0666666666666667,1.1,21063.614256375,21064.512674042,9,21063.6817505,21063.746926667,21064.536851167,21065.630227125,1,0.898417666998284
120,40,7,categorization,0,kitchen,SHINEd_sun_abpwyqmlzafvklqo.tif,72,0.0666666666666667,0.0666666666666667,1.16666666666667,21065.63935225,21067.22891075,13,21065.704683083,21065.771660167,21067.245916708,21068.4059725,0,1.58955849999984
120,41,7,categorization,0,kitchen,SHINEd_sun_axyyrmzcupyhlivc.tif,107,0.0666666666666667,0.0666666666666667,1.31666666666667,21068.416389,21069.222796917,9,21068.483238125,21068.548885708,21069.237919917,21070.547974042,1,0.806407916999888
120,42,7,categorization,0,kitchen,SHINEd_sun_avszsnwsbuqfgzbn.tif,105,0.0666666666666667,0.0666666666666667,1.68333333333333,21070.566935292,21071.487091667,9,21070.633872292,21070.699331458,21071.506060125,21073.182781417,1,0.920156374999351
120,43,7,categorization,0,kitchen,SHINEd_sun_aggjlwcdjsjcaemh.tif,86,0.0666666666666667,0.0666666666666667,0.966666666666667,21073.201842375,21075.003361625,13,21073.268842625,21073.334352583,21075.02054325,21075.980546875,0,1.80151924999882
120,44,7,categorization,0,kitchen,SHINEd_sun_aenotlpyftoioydp.tif,82,0.0666666666666667,0.0666666666666667,1.4,21075.985404042,21076.779932583,9,21076.047182333,21076.108060042,21076.793463292,21078.186828958,1,0.794528540998726
120,45,7,categorization,0,kitchen,SHINEd_sun_abdxkyyxwfskuaqb.tif,70,0.0666666666666667,0.0666666666666667,0.783333333333333,21078.203821083,21079.036916792,9,21078.271833792,21078.33633775,21079.059562167,21079.836237792,1,0.83309570900019
120,46,7,categorization,0,kitchen,SHINEd_sun_aexklacwqwezaorf.tif,84,0.0666666666666667,0.0666666666666667,1.08333333333333,21079.842134375,21080.8273775,9,21079.904001875,21079.964840833,21080.83360075,21081.910313292,1,0.985243125000125
120,47,7,categorization,0,bathroom,SHINEd_sun_aapitsgbtktqubfy.tif,12,0.0666666666666667,0.0666666666666667,1.43333333333333,21081.9194485,21082.99045225,13,21081.984640542,21082.050247083,21083.005886667,21084.432598208,1,1.07100374999936
120,48,7,categorization,0,bathroom,SHINEd_sun_asfwthctfqerjvxr.tif,49,0.0666666666666667,0.0666666666666667,1.75,21084.450223542,21085.727157958,13,21084.517280917,21084.582999833,21085.757965375,21087.501344958,1,1.27693441600059
120,49,7,categorization,0,kitchen,SHINEd_sun_ahpczsiumwwocjkv.tif,92,0.0666666666666667,0.0666666666666667,1.21666666666667,21087.518312667,21088.431865,9,21087.5849005,21087.650933375,21088.457418125,21089.667471708,1,0.913552332996915
120,50,7,categorization,0,bathroom,SHINEd_sun_axyrejkiiaqiurjk.tif,59,0.0666666666666667,0.0666666666666667,1.31666666666667,21089.685480333,21091.197981208,9,21089.752300667,21089.817718333,21091.226426208,21092.536455583,0,1.51250087500011
120,1,8,categorization,0,bathroom,SHINEd_sun_aspsyogrekjtfozg.tif,50,0.0666666666666667,0.0666666666666667,1.18333333333333,21110.175862458,21116.498910042,13,21110.238880042,21110.2985645,21116.518002792,21117.694689458,1,6.32304758399914
120,2,8,categorization,0,kitchen,SHINEd_sun_abdenxonkemggwsq.tif,69,0.0666666666666667,0.0666666666666667,0.983333333333333,21117.703732083,21119.089159542,13,21117.771485958,21117.835788958,21119.111024125,21120.087696167,0,1.38542745900122
120,3,8,categorization,0,kitchen,SHINEd_sun_ajkqhtgcbgpcwrwn.tif,97,0.0666666666666667,0.0666666666666667,1.65,21120.09266525,21121.139618,13,21120.154485833,21120.215369292,21121.15067075,21122.794043958,0,1.04695275000267
120,4,8,categorization,0,bathroom,SHINEd_sun_avhrdrntsqrjzccq.tif,55,0.0666666666666667,0.0666666666666667,1.23333333333333,21122.811055042,21123.583664625,13,21122.877882708,21122.944127875,21123.600141042,21124.826845833,1,0.772609583000303
120,5,8,categorization,0,bathroom,SHINEd_sun_alkosphxlxwjwgjd.tif,34,0.0666666666666667,0.0666666666666667,0.916666666666667,21124.843786625,21125.49182225,13,21124.910182833,21124.976365958,21125.5159575,21126.42599375,1,0.648035624999466
120,6,8,categorization,0,bathroom,SHINEd_sun_ausgutylgojavyoq.tif,53,0.0666666666666667,0.0666666666666667,1.56666666666667,21126.443251125,21127.123361042,13,21126.509460292,21126.57537275,21127.127440583,21128.687476833,1,0.680109916997026
120,7,8,categorization,0,kitchen,SHINEd_sun_aypmqwcualkenuoe.tif,109,0.0666666666666667,0.0666666666666667,1.63333333333333,21128.70475875,21129.82416425,9,21128.771613042,21128.837369042,21129.843848292,21131.47056325,1,1.11940550000145
120,8,8,categorization,0,bathroom,SHINEd_sun_awnqiikzaispgmwo.tif,56,0.0666666666666667,0.0666666666666667,1.1,21131.489179375,21132.615138417,13,21131.556513,21131.6213605,21132.645097542,21133.738464375,1,1.12595904200134
120,9,8,categorization,0,bathroom,SHINEd_sun_ahijqszoswveeyji.tif,28,0.0666666666666667,0.0666666666666667,1.38333333333333,21133.748834583,21135.039001,13,21133.813861042,21133.880775958,21135.055432333,21136.432139,1,1.29016641700218
120,10,8,categorization,0,bathroom,SHINEd_sun_amzlamotzwfkwjco.tif,37,0.0666666666666667,0.0666666666666667,0.766666666666667,21136.4499995,21137.20040075,13,21136.517784708,21136.582925875,21137.223540333,21137.983585333,1,0.750401249999413
120,11,8,categorization,0,bathroom,SHINEd_sun_aunuadmjocsddsrl.tif,52,0.0666666666666667,0.0666666666666667,1.45,21137.995845,21138.827367333,13,21138.063184833,21138.128332583,21138.847430625,21140.29079325,1,0.831522332999157
120,12,8,categorization,0,kitchen,SHINEd_sun_aixorpehvfykdynp.tif,95,0.0666666666666667,0.0666666666666667,0.983333333333333,21140.308742625,21142.01931125,9,21140.376483,21140.4410585,21142.027317458,21143.003989542,1,1.71056862499972
120,13,8,categorization,0,kitchen,SHINEd_sun_aymvwlarqodbwuoc.tif,108,0.0666666666666667,0.0666666666666667,0.716666666666667,21143.009384625,21144.45170575,9,21143.071178083,21143.131988583,21144.467979417,21145.177982875,1,1.44232112500322
120,14,8,categorization,0,kitchen,SHINEd_sun_awcpdzzznmweyyhv.tif,106,0.0666666666666667,0.0666666666666667,1.41666666666667,21145.182807958,21147.651545375,9,21145.244552625,21145.305466625,21147.658198,21149.068229,1,2.46873741699892
120,15,8,categorization,0,bathroom,SHINEd_sun_akiytfaagpdsphgz.tif,31,0.0666666666666667,0.0666666666666667,1.21666666666667,21149.085605167,21149.829227667,13,21149.154005042,21149.217908333,21149.857569167,21151.067603625,1,0.74362249999831
120,16,8,categorization,0,bathroom,SHINEd_sun_azqyogdvyhahyram.tif,60,0.0666666666666667,0.0666666666666667,1.61666666666667,21151.083138458,21151.815408375,13,21151.14993725,21151.215492375,21151.83822925,21153.44826475,1,0.73226991699994
120,17,8,categorization,0,bathroom,SHINEd_sun_abapwbhyhkfixyex.tif,14,0.0666666666666667,0.0666666666666667,0.783333333333333,21153.465586,21155.4277695,13,21153.5323235,21153.598545667,21155.434400375,21156.211072833,1,1.96218349999981
120,18,8,categorization,0,kitchen,SHINEd_sun_azmutvzbxypaceni.tif,110,0.0666666666666667,0.0666666666666667,1.98333333333333,21156.215830792,21157.587645792,9,21156.27768125,21156.3385375,21157.607642625,21159.584357917,1,1.37181499999861
120,19,8,categorization,0,bathroom,SHINEd_sun_ambriybtogmepttm.tif,36,0.0666666666666667,0.0666666666666667,0.983333333333333,21159.602426792,21160.404424292,13,21159.669127708,21159.735441917,21160.4254465,21161.402118708,1,0.801997499998834
120,20,8,categorization,0,kitchen,SHINEd_sun_adgqasybjyktddhj.tif,78,0.0666666666666667,0.0666666666666667,0.8,21161.40709,21162.2507625,9,21161.468858083,21161.529751042,21162.265092583,21163.058429958,1,0.843672499999229
120,21,8,categorization,0,kitchen,SHINEd_sun_aarfiyshqohlwkmo.tif,67,0.0666666666666667,0.0666666666666667,0.733333333333333,21163.063722875,21164.611039542,9,21163.125462042,21163.186350167,21164.622028,21165.348698792,1,1.54731666700172
120,22,8,categorization,0,kitchen,SHINEd_sun_aapllqyqlykszopd.tif,66,0.0666666666666667,0.0666666666666667,0.966666666666667,21165.353755,21166.514918875,9,21165.415569708,21165.476328792,21166.528565792,21167.488570083,1,1.16116387500006
120,23,8,categorization,0,bathroom,SHINEd_sun_ahcvzmoyaycdoftf.tif,27,0.0666666666666667,0.0666666666666667,0.866666666666667,21167.496225833,21168.28338425,13,21167.557919292,21167.618828917,21168.287502083,21169.147506792,1,0.787158416998864
120,24,8,categorization,0,kitchen,SHINEd_sun_aunzlwrbjumxhwdj.tif,103,0.0666666666666667,0.0666666666666667,1.23333333333333,21169.153171333,21170.85923025,9,21169.214877458,21169.2758515,21170.878482917,21172.105184917,1,1.70605891699961
120,25,8,categorization,0,kitchen,SHINEd_sun_acgtpgfybqjmzeyw.tif,75,0.0666666666666667,0.0666666666666667,1.9,21172.11665025,21173.005630542,9,21172.184600125,21172.24906725,21173.021521667,21174.914898958,1,0.888980292002088
120,26,8,categorization,0,kitchen,SHINEd_sun_abrcnpqqhmjwekyf.tif,73,0.0666666666666667,0.0666666666666667,0.866666666666667,21174.931086,21175.757166917,9,21174.997485042,21175.063410125,21175.786535208,21176.646540042,1,0.826080916998762
120,27,8,categorization,0,kitchen,SHINEd_sun_ajcbwwvdlsvjyzje.tif,96,0.0666666666666667,0.0666666666666667,0.966666666666667,21176.651676708,21178.067104792,9,21176.713430583,21176.774343333,21178.076457,21179.036460875,1,1.41542808400118
120,28,8,categorization,0,kitchen,SHINEd_sun_akcjzhbbjlbogpdi.tif,99,0.0666666666666667,0.0666666666666667,0.916666666666667,21179.041681875,21180.235219375,9,21179.103472625,21179.1642715,21180.249567333,21181.159571083,1,1.19353749999937
120,29,8,categorization,0,kitchen,SHINEd_sun_admlmbcdswaszruo.tif,79,0.0666666666666667,0.0666666666666667,0.916666666666667,21181.164468458,21182.28375375,9,21181.226223458,21181.28707425,21182.289245292,21183.199249542,1,1.11928529200304
120,30,8,categorization,0,bathroom,SHINEd_sun_aggnnqpdorgxpvce.tif,21,0.0666666666666667,0.0666666666666667,1.4,21183.204579708,21184.459613167,9,21183.266385542,21183.327228583,21184.479816917,21185.873199,0,1.25503345900142
120,31,8,categorization,0,bathroom,SHINEd_sun_acegryoqftbzowsg.tif,17,0.0666666666666667,0.0666666666666667,1.75,21185.889821,21186.615438125,9,21185.955199333,21186.020521083,21186.643732125,21188.387101167,0,0.725617125001008
120,32,8,categorization,0,kitchen,SHINEd_sun_agubuxuukhzyzpdp.tif,88,0.0666666666666667,0.0666666666666667,1.25,21188.404614875,21189.160808583,9,21188.472723625,21188.53698875,21189.176415542,21190.419797667,1,0.756193708002684
120,33,8,categorization,0,kitchen,SHINEd_sun_acxkpeoqbwcxfvip.tif,77,0.0666666666666667,0.0666666666666667,1.05,21190.437705708,21191.124619208,9,21190.504604333,21190.5705705,21191.144100625,21192.187471167,1,0.686913500001538
120,34,8,categorization,0,kitchen,SHINEd_labelme_brsyyvweiuaazfr.tif,61,0.0666666666666667,0.0666666666666667,1.06666666666667,21192.197092875,21192.851691542,9,21192.259146583,21192.319834833,21192.854973,21193.915019,1,0.654598666998936
120,35,8,categorization,0,kitchen,SHINEd_labelme_kxvouciolcpqplr.tif,62,0.0666666666666667,0.0666666666666667,1.21666666666667,21193.92375775,21194.738818167,9,21193.98867125,21194.054327042,21194.761059875,21195.971070792,1,0.815060417000495
120,36,8,categorization,0,bathroom,SHINEd_sun_acduarbnmmoglmiv.tif,16,0.0666666666666667,0.0666666666666667,0.95,21195.981015125,21196.939583583,9,21196.042848583,21196.103716417,21196.955630792,21197.898969167,0,0.958568458001537
120,37,8,categorization,0,bathroom,SHINEd_sun_apynckhmoftszqoq.tif,47,0.0666666666666667,0.0666666666666667,0.9,21197.903760375,21198.875444458,13,21197.965539042,21198.026827208,21198.878647583,21199.771984583,1,0.971684083000582
120,38,8,categorization,0,bathroom,SHINEd_sun_ahaulkltgpkeeemi.tif,26,0.0666666666666667,0.0666666666666667,1.78333333333333,21199.779473042,21201.530698458,13,21199.841375875,21199.902141125,21201.538105,21203.314817208,1,1.75122541599922
120,39,8,categorization,0,bathroom,SHINEd_sun_agguqiubmwhqqunb.tif,22,0.0666666666666667,0.0666666666666667,1.16666666666667,21203.333348958,21204.283098708,9,21203.399543625,21203.46573925,21204.305710833,21205.465747458,0,0.949749750001502
120,40,8,categorization,0,bathroom,SHINEd_sun_axldvoqbuvuggfmq.tif,57,0.0666666666666667,0.0666666666666667,0.783333333333333,21205.475287792,21207.144545917,9,21205.543842458,21205.607500042,21207.166348667,21207.943019125,0,1.66925812499903
120,41,8,categorization,0,kitchen,SHINEd_sun_agzzivivdpnawacl.tif,89,0.0666666666666667,0.0666666666666667,1.23333333333333,21207.948160292,21209.915693625,9,21208.010050042,21208.070879,21209.922952333,21211.149655625,1,1.96753333300148
120,42,8,categorization,0,kitchen,SHINEd_sun_auaiucuqpdausiva.tif,102,0.0666666666666667,0.0666666666666667,0.9,21211.165433083,21212.357109792,9,21211.232098833,21211.298326208,21212.370039542,21213.263377,1,1.1916767090006
120,43,8,categorization,0,kitchen,SHINEd_sun_ahywdevtimnqcsln.tif,94,0.0666666666666667,0.0666666666666667,0.7,21213.268496125,21214.027645417,9,21213.330343458,21213.391198083,21214.043084125,21214.736421167,1,0.759149292000075
120,44,8,categorization,0,bathroom,SHINEd_sun_ahqjwnzgolcaoidx.tif,29,0.0666666666666667,0.0666666666666667,1.23333333333333,21214.741160083,21215.682938208,13,21214.802827583,21214.863790208,21215.69947575,21216.926174333,1,0.941778125001292
120,45,8,categorization,0,bathroom,SHINEd_sun_acgyywnybuveqsro.tif,18,0.0666666666666667,0.0666666666666667,1,21216.942487833,21217.630996208,13,21217.010653042,21217.075166833,21217.6478765,21218.641267,1,0.688508375002129
120,46,8,categorization,0,bathroom,SHINEd_sun_aljolscmmzydegqp.tif,33,0.0666666666666667,0.0666666666666667,1.38333333333333,21218.657473875,21219.57083075,13,21218.725457958,21218.783811708,21219.586317833,21220.963034375,1,0.913356875000318
120,47,8,categorization,0,bathroom,SHINEd_sun_aghyqhbptboemmoq.tif,23,0.0666666666666667,0.0666666666666667,1.3,21220.982882333,21221.8831235,13,21221.049579083,21221.115355042,21221.905352667,21223.1987185,1,0.900241167000786
120,48,8,categorization,0,kitchen,SHINEd_sun_amjjdeyrggfqgmom.tif,100,0.0666666666666667,0.0666666666666667,0.833333333333333,21223.21765975,21224.533810917,9,21223.284526417,21223.350030917,21224.558317792,21225.384989958,1,1.3161511670005
120,49,8,categorization,0,kitchen,SHINEd_sun_ahspylgoovwmwvgk.tif,93,0.0666666666666667,0.0666666666666667,0.95,21225.390770708,21226.283275708,9,21225.452820458,21225.513505833,21226.298673875,21227.242011375,1,0.892504999999801
120,50,8,categorization,0,bathroom,SHINEd_sun_aavhrsfjbserjtht.tif,13,0.0666666666666667,0.0666666666666667,1.43333333333333,21227.247821167,21228.138878,13,21227.30937225,21227.370427292,21228.155974458,21229.582679917,1,0.891056833002949
120,1,9,categorization,0,kitchen,SHINEd_labelme_kxvouciolcpqplr.tif,62,0.0666666666666667,0.0666666666666667,1.08333333333333,21278.022731583,21279.003298542,13,21278.085195542,21278.145661875,21279.014266417,21280.090973917,0,0.980566958998679
120,2,9,categorization,0,bathroom,SHINEd_sun_alotolagknyrgtsk.tif,35,0.0666666666666667,0.0666666666666667,0.8,21280.101101333,21282.242552167,9,21280.165274208,21280.23336475,21282.252847958,21283.046187125,0,2.14145083400217
120,3,9,categorization,0,kitchen,SHINEd_sun_aunzlwrbjumxhwdj.tif,103,0.0666666666666667,0.0666666666666667,0.833333333333333,21283.051073417,21286.4264885,13,21283.113223208,21283.174198375,21286.460035417,21287.286708625,0,3.37541508300274
120,4,9,categorization,0,kitchen,SHINEd_labelme_brsyyvweiuaazfr.tif,61,0.0666666666666667,0.0666666666666667,1.45,21287.291837833,21288.154428625,13,21287.353659958,21287.414442833,21288.166281875,21289.609661,0,0.862590791999537
120,5,9,categorization,0,bathroom,SHINEd_sun_apeeialkgkuxddgh.tif,42,0.0666666666666667,0.0666666666666667,1.3,21289.626866542,21290.272340333,13,21289.694381,21289.759493708,21290.299373125,21291.592738458,1,0.645473790998949
120,6,9,categorization,0,kitchen,SHINEd_sun_azmutvzbxypaceni.tif,110,0.0666666666666667,0.0666666666666667,1.21666666666667,21291.609500958,21292.801898917,13,21291.677029333,21291.742242583,21292.831967,21294.042007792,0,1.19239795900285
120,7,9,categorization,0,kitchen,SHINEd_sun_auticobqsbwgoppi.tif,104,0.0666666666666667,0.0666666666666667,0.733333333333333,21294.051974,21294.93147975,9,21294.120633167,21294.184327917,21294.957556,21295.684279792,1,0.879505749999225
120,8,9,categorization,0,kitchen,SHINEd_sun_acwjdupvyjsugpay.tif,76,0.0666666666666667,0.0666666666666667,1.03333333333333,21295.699855292,21296.89115475,9,21295.766450208,21295.832053583,21296.901525833,21297.928235208,1,1.19129945799796
120,9,9,categorization,0,bathroom,SHINEd_sun_axxbkopsgyouuebh.tif,58,0.0666666666666667,0.0666666666666667,1.1,21297.935730292,21298.759642042,13,21298.000666708,21298.066423167,21298.789487542,21299.882861625,1,0.823911750001571
120,10,9,categorization,0,kitchen,SHINEd_sun_afuyedyxivkhecmu.tif,85,0.0666666666666667,0.0666666666666667,1.25,21299.900376167,21301.227284042,13,21299.962900083,21300.023128625,21301.242393417,21302.485783583,0,1.32690787500178
120,11,9,categorization,0,bathroom,SHINEd_sun_acegryoqftbzowsg.tif,17,0.0666666666666667,0.0666666666666667,1.4,21302.502727583,21303.531788,13,21302.5690095,21302.636295042,21303.559746333,21304.9531275,1,1.02906041700044
120,12,9,categorization,0,bathroom,SHINEd_sun_agguqiubmwhqqunb.tif,22,0.0666666666666667,0.0666666666666667,1.43333333333333,21304.969954792,21306.172687667,13,21305.0376955,21305.102111792,21306.19156,21307.61828,1,1.20273287500095
