sub_num,trial,block,task,is_practice,category,image,texture,duration,mask_dur,jitter,stim_time,time_of_resp,trial_response,mask_time,fix_time,jit_onset,trial_end,trial_accuracy,RT
135,6,0,usability,1,kitchen,kitchen_practice2.tif,227,1.5,0,1.13333333333333,8399.508153208,8403.284387791,4,NaN,8403.290334833,8403.308660625,8404.435407958,NaN,NaN
135,7,0,usability,1,kitchen,kitchen_practice3.tif,228,1.5,0,0.933333333333333,8404.44412925,8407.2851,6,NaN,8407.290658916,8407.309015125,8408.235691041,NaN,NaN
135,8,0,usability,1,kitchen,kitchen_practice1.tif,226,1.5,0,1.48333333333333,8408.240116958,8411.248517333,4,NaN,8411.269803875,8411.290226166,8412.766968208,NaN,NaN
135,9,0,usability,1,kitchen,kitchen_practice4.tif,229,1.5,0,1.33333333333333,8412.787949666,8416.340622541,5,NaN,8416.3464955,8416.364935875,8417.691696125,NaN,NaN
135,10,0,usability,1,kitchen,kitchen_practice5.tif,230,1.5,0,1.3,8417.709659541,8420.436730625,6,NaN,8420.442290333,8420.460707958,8421.754122166,NaN,NaN
135,1,1,usability,0,kitchen,sun_amjjdeyrggfqgmom.tif,210,1.5,0,1.91666666666667,8426.089769416,8428.952610583,7,NaN,8428.979637666,8429.003427458,8430.913508875,NaN,NaN
135,2,1,usability,0,kitchen,sun_aymvwlarqodbwuoc.tif,218,1.5,0,0.85,8430.9327075,8433.2590145,7,NaN,8433.302004333,8433.323784208,8434.167186916,NaN,NaN
135,3,1,usability,0,kitchen,labelme_rykdqxenmhulbdn.tif,173,1.5,0,0.7,8434.179141958,8438.172507208,3,NaN,8438.178180291,8438.196354833,8438.889698583,NaN,NaN
135,4,1,usability,0,kitchen,sun_adgqasybjyktddhj.tif,188,1.5,0,1.6,8438.894043458,8441.501558208,2,NaN,8441.5298345,8441.553672333,8443.147089,NaN,NaN
135,5,1,usability,0,kitchen,sun_aehawpgmrlhlvcow.tif,191,1.5,0,1.13333333333333,8443.165203375,8446.397215666,7,NaN,8446.40280875,8446.421167458,8447.547923166,NaN,NaN
135,6,1,usability,0,kitchen,sun_aadbddgrdsjugojn.tif,174,1.5,0,0.716666666666667,8447.556502166,8450.316703625,2,NaN,8450.322231791,8450.340519166,8451.050527791,NaN,NaN
135,7,1,usability,0,kitchen,sun_acwjdupvyjsugpay.tif,186,1.5,0,1.6,8451.0658325,8453.825810791,1,NaN,8453.855060541,8453.878296875,8455.471701208,NaN,NaN
135,8,1,usability,0,kitchen,sun_aixorpehvfykdynp.tif,205,1.5,0,1.68333333333333,8455.489790583,8458.501514583,2,NaN,8458.530779458,8458.554034916,8460.230758208,NaN,NaN
135,9,1,usability,0,kitchen,sun_auaiucuqpdausiva.tif,212,1.5,0,1.41666666666667,8460.248067375,8463.820550125,3,NaN,8463.827895458,8463.8465515,8465.256631125,NaN,NaN
135,10,1,usability,0,kitchen,sun_aamedkxepzlwuxes.tif,175,1.5,0,1,8465.270210416,8467.90823375,1,NaN,8467.914075875,8467.933008333,8468.926350916,NaN,NaN
135,11,1,usability,0,kitchen,sun_ahpczsiumwwocjkv.tif,202,1.5,0,1.33333333333333,8468.930591958,8471.873957916,7,NaN,8471.903506083,8471.927023583,8473.25376175,NaN,NaN
135,12,1,usability,0,kitchen,sun_aenotlpyftoioydp.tif,192,1.5,0,1.15,8473.268717,8476.1403415,1,NaN,8476.146183458,8476.164591583,8477.308026875,NaN,NaN
135,13,1,usability,0,kitchen,sun_aexklacwqwezaorf.tif,194,1.5,0,1.86666666666667,8477.318588541,8479.9089365,7,NaN,8479.914340208,8479.932882416,8481.79294125,NaN,NaN
135,14,1,usability,0,kitchen,sun_aapllqyqlykszopd.tif,176,1.5,0,1.18333333333333,8481.806408791,8484.678406666,2,NaN,8484.706320791,8484.730020666,8485.90675475,NaN,NaN
135,15,1,usability,0,kitchen,sun_ahywdevtimnqcsln.tif,204,1.5,0,1.71666666666667,8485.918440708,8488.740425458,3,NaN,8488.746053375,8488.764503916,8490.474580083,NaN,NaN
135,16,1,usability,0,kitchen,sun_aggjlwcdjsjcaemh.tif,196,1.5,0,1.1,8490.493005166,8493.783894083,5,NaN,8493.813634416,8493.837135125,8494.930562916,NaN,NaN
135,17,1,usability,0,kitchen,sun_acxkpeoqbwcxfvip.tif,187,1.5,0,0.983333333333333,8494.93939225,8497.428399291,6,NaN,8497.434086041,8497.452343708,8498.429020375,NaN,NaN
135,18,1,usability,0,kitchen,sun_aeqdocilnnpuvuhx.tif,193,1.5,0,0.916666666666667,8498.4339025,8501.317220125,6,NaN,8501.335192458,8501.356591166,8502.266599208,NaN,NaN
135,19,1,usability,0,kitchen,sun_akcjzhbbjlbogpdi.tif,209,1.5,0,0.716666666666667,8502.271317,8506.612394833,3,NaN,8506.618057,8506.636319,8507.346327875,NaN,NaN
135,20,1,usability,0,kitchen,sun_ajcbwwvdlsvjyzje.tif,206,1.5,0,0.883333333333333,8507.350627125,8510.229062541,2,NaN,8510.251552208,8510.274819041,8511.15149525,NaN,NaN
135,21,1,usability,0,kitchen,sun_azmutvzbxypaceni.tif,220,1.5,0,1.93333333333333,8511.156039541,8514.564247375,4,NaN,8514.569847958,8514.588072416,8516.514811625,NaN,NaN
135,22,1,usability,0,kitchen,sun_awcpdzzznmweyyhv.tif,216,1.5,0,0.9,8516.533815791,8519.103699208,6,NaN,8519.158993375,8519.182312541,8520.075655541,NaN,NaN
135,23,1,usability,0,kitchen,sun_aunzlwrbjumxhwdj.tif,213,1.5,0,1.13333333333333,8520.080542458,8522.568042125,1,NaN,8522.594857333,8522.618547083,8523.745284541,NaN,NaN
135,24,1,usability,0,kitchen,labelme_kxvouciolcpqplr.tif,172,1.5,0,0.766666666666667,8523.754646666,8526.76470025,3,NaN,8526.770156208,8526.788435833,8527.548445625,NaN,NaN
135,25,1,usability,0,kitchen,sun_agubuxuukhzyzpdp.tif,198,1.5,0,0.966666666666667,8527.565462541,8531.060162708,4,NaN,8531.06596775,8531.084393333,8532.044405,NaN,NaN
135,1,2,usability,0,kitchen,sun_ajkqhtgcbgpcwrwn.tif,207,1.5,0,1.56666666666667,8536.864049,8540.276141625,2,NaN,8540.282266916,8540.300690625,8541.860787125,NaN,NaN
135,2,2,usability,0,kitchen,sun_avszsnwsbuqfgzbn.tif,215,1.5,0,1.2,8541.880842375,8546.356606458,5,NaN,8546.362160375,8546.38064675,8547.57405825,NaN,NaN
135,3,2,usability,0,kitchen,sun_admlmbcdswaszruo.tif,189,1.5,0,1.73333333333333,8547.587012083,8550.676348166,7,NaN,8550.682132333,8550.700324791,8552.427072083,NaN,NaN
135,4,2,usability,0,kitchen,sun_abdxkyyxwfskuaqb.tif,180,1.5,0,1.61666666666667,8552.446318291,8559.275924708,4,NaN,8559.282664416,8559.302254375,8560.912311208,NaN,NaN
135,5,2,usability,0,kitchen,sun_aypmqwcualkenuoe.tif,219,1.5,0,1.38333333333333,8560.926823125,8564.492234666,3,NaN,8564.497961,8564.516718125,8565.893452916,NaN,NaN
135,6,2,usability,0,kitchen,sun_agzzivivdpnawacl.tif,199,1.5,0,1.73333333333333,8565.910963458,8569.084274416,3,NaN,8569.089737083,8569.108170375,8570.834937833,NaN,NaN
135,7,2,usability,0,kitchen,sun_aaxxjlsuzvqlgylf.tif,178,1.5,0,1.96666666666667,8570.852847416,8573.600129041,5,NaN,8573.629578208,8573.653287791,8575.613367666,NaN,NaN
135,8,2,usability,0,kitchen,sun_abftihopvusyfakt.tif,181,1.5,0,0.883333333333333,8575.630660625,8578.455715833,6,NaN,8578.48541525,8578.509044041,8579.385717791,NaN,NaN
135,9,2,usability,0,kitchen,sun_agorklincwxrdtga.tif,197,1.5,0,1.06666666666667,8579.390439083,8581.8879125,6,NaN,8581.918306041,8581.941033916,8583.001122916,NaN,NaN
135,10,2,usability,0,kitchen,labelme_brsyyvweiuaazfr.tif,171,1.5,0,1.06666666666667,8583.008909458,8585.995791791,2,NaN,8586.001791708,8586.020143,8587.080211666,NaN,NaN
135,11,2,usability,0,kitchen,sun_afuyedyxivkhecmu.tif,195,1.5,0,0.966666666666667,8587.089595666,8589.955981291,4,NaN,8589.961781125,8589.980043041,8590.940054375,NaN,NaN
135,12,2,usability,0,kitchen,sun_aegoxogugdkwpmpj.tif,190,1.5,0,1.78333333333333,8590.944626541,8593.467107583,2,NaN,8593.496469541,8593.520043416,8595.296738541,NaN,NaN
135,13,2,usability,0,kitchen,sun_axyyrmzcupyhlivc.tif,217,1.5,0,1.68333333333333,8595.3081675,8598.104859375,2,NaN,8598.134827583,8598.15841525,8599.835156541,NaN,NaN
135,14,2,usability,0,kitchen,sun_abpwyqmlzafvklqo.tif,182,1.5,0,0.983333333333333,8599.853232375,8602.745403833,1,NaN,8602.774870041,8602.798605541,8603.775282458,NaN,NaN
135,15,2,usability,0,kitchen,sun_abdenxonkemggwsq.tif,179,1.5,0,1.33333333333333,8603.781654166,8606.321196958,6,NaN,8606.351651875,8606.375036083,8607.701802916,NaN,NaN
135,16,2,usability,0,kitchen,sun_acgtpgfybqjmzeyw.tif,185,1.5,0,1.56666666666667,8607.719577541,8610.595517208,4,NaN,8610.601589875,8610.62008975,8612.180152791,NaN,NaN
135,17,2,usability,0,kitchen,sun_ahspylgoovwmwvgk.tif,203,1.5,0,1.66666666666667,8612.203338625,8614.764062375,5,NaN,8614.769519958,8614.787968375,8616.4480575,NaN,NaN
135,18,2,usability,0,kitchen,sun_auticobqsbwgoppi.tif,214,1.5,0,1.86666666666667,8616.471116083,8619.112351916,1,NaN,8619.141063958,8619.164602541,8621.024657875,NaN,NaN
135,19,2,usability,0,kitchen,sun_aqeaevwwwjoqhzvl.tif,211,1.5,0,1.95,8621.044575333,8623.692721958,4,NaN,8623.72203625,8623.745537666,8625.688931291,NaN,NaN
135,20,2,usability,0,kitchen,sun_acfmftudsenhrfhy.tif,184,1.5,0,0.966666666666667,8625.709676,8629.148175166,3,NaN,8629.153673208,8629.172012666,8630.132020833,NaN,NaN
135,21,2,usability,0,kitchen,sun_abrcnpqqhmjwekyf.tif,183,1.5,0,1.43333333333333,8630.136421791,8633.563608666,6,NaN,8633.569629708,8633.588016791,8635.014745708,NaN,NaN
135,22,2,usability,0,kitchen,sun_ahdycvpopffkzzsu.tif,200,1.5,0,0.85,8635.033197708,8639.100389666,2,NaN,8639.106487625,8639.124817708,8639.96816075,NaN,NaN
135,23,2,usability,0,kitchen,sun_ahljzhgcdpomplvg.tif,201,1.5,0,1.53333333333333,8639.972854416,8644.427744875,4,NaN,8644.433474708,8644.451763791,8645.978486333,NaN,NaN
135,24,2,usability,0,kitchen,sun_akchetnepxlcxhsu.tif,208,1.5,0,1.18333333333333,8645.99762925,8650.155992791,3,NaN,8650.162523583,8650.18104475,8651.357781708,NaN,NaN
135,25,2,usability,0,kitchen,sun_aarfiyshqohlwkmo.tif,177,1.5,0,1.86666666666667,8651.367118791,8655.252077708,2,NaN,8655.258245666,8655.27667625,8657.136778916,NaN,NaN
