sub_num,trial,block,task,is_practice,category,image,texture,duration,mask_dur,jitter,stim_time,time_of_resp,trial_response,mask_time,fix_time,jit_onset,trial_end,trial_accuracy,RT
109,1,0,typicality,1,bathroom,bathroom_practice2.tif,222,1.5,0,1.48333333333333,6470.265719208,6478.018310625,1,NaN,6478.039887042,6478.060452125,6479.537307583,NaN,NaN
109,2,0,typicality,1,bathroom,bathroom_practice4.tif,224,1.5,0,0.75,6479.60600175,6484.601986583,4,NaN,6484.612399,6484.631506375,6485.374859875,NaN,NaN
109,3,0,typicality,1,bathroom,bathroom_practice1.tif,221,1.5,0,1.93333333333333,6485.381836167,6490.185529542,4,NaN,6490.193897875,6490.212925625,6492.139779,NaN,NaN
109,4,0,typicality,1,bathroom,bathroom_practice5.tif,225,1.5,0,0.983333333333333,6492.177477292,6500.186289125,4,NaN,6500.194795417,6500.214600833,6501.191282333,NaN,NaN
109,5,0,typicality,1,bathroom,bathroom_practice3.tif,223,1.5,0,0.883333333333333,6501.199489625,6506.866183583,5,NaN,6506.876886375,6506.896374333,6507.773115,NaN,NaN
109,1,1,typicality,0,bathroom,sun_aapitsgbtktqubfy.tif,122,1.5,0,0.866666666666667,6518.075765917,6523.001567458,5,NaN,6523.009002917,6523.027815917,6523.887834333,NaN,NaN
109,2,1,typicality,0,bathroom,sun_aleqenyvunhactkl.tif,142,1.5,0,1.03333333333333,6523.89294225,6527.922024042,4,NaN,6527.928118708,6527.94644775,6528.973159208,NaN,NaN
109,3,1,typicality,0,bathroom,sun_ajlawzvmubibwbpy.tif,140,1.5,0,0.866666666666667,6528.983257333,6534.002388875,5,NaN,6534.008699667,6534.027415333,6534.887421333,NaN,NaN
109,4,1,typicality,0,bathroom,sun_alkosphxlxwjwgjd.tif,144,1.5,0,1.61666666666667,6534.892211042,6540.017374083,3,NaN,6540.024391708,6540.04318275,6541.653222917,NaN,NaN
109,5,1,typicality,0,bathroom,sun_anhioqovhscjqqwb.tif,148,1.5,0,0.883333333333333,6541.669812,6546.105910042,7,NaN,6546.113677167,6546.13240175,6547.009073792,NaN,NaN
109,6,1,typicality,0,bathroom,sun_alotolagknyrgtsk.tif,145,1.5,0,0.933333333333333,6547.0137395,6552.753403083,1,NaN,6552.7597185,6552.778292792,6553.704964375,NaN,NaN
109,7,1,typicality,0,bathroom,sun_aghyqhbptboemmoq.tif,133,1.5,0,1.5,6553.711185583,6559.185512875,7,NaN,6559.191831583,6559.210220708,6560.703602042,NaN,NaN
109,8,1,typicality,0,bathroom,sun_asfwthctfqerjvxr.tif,159,1.5,0,1.36666666666667,6560.7142575,6565.250164083,3,NaN,6565.256017625,6565.274295333,6566.63435175,NaN,NaN
109,9,1,typicality,0,bathroom,sun_agyqfjcfkdcydepw.tif,135,1.5,0,0.85,6566.644437833,6571.081823917,1,NaN,6571.088286125,6571.106895625,6571.950235042,NaN,NaN
109,10,1,typicality,0,bathroom,sun_apeeialkgkuxddgh.tif,152,1.5,0,1.81666666666667,6571.95492975,6575.289459708,6,NaN,6575.296516,6575.314847583,6577.124896125,NaN,NaN
109,11,1,typicality,0,bathroom,sun_acegryoqftbzowsg.tif,127,1.5,0,1.28333333333333,6577.142062458,6580.383328458,2,NaN,6580.414007708,6580.437787708,6581.714507208,NaN,NaN
109,12,1,typicality,0,bathroom,sun_anryaplzeujmzfkd.tif,149,1.5,0,1.23333333333333,6581.732897167,6584.921194917,3,NaN,6584.927571958,6584.946619083,6586.17332775,NaN,NaN
109,13,1,typicality,0,bathroom,sun_amzlamotzwfkwjco.tif,147,1.5,0,0.883333333333333,6586.189499167,6590.666165792,3,NaN,6590.672944625,6590.691470167,6591.568141583,NaN,NaN
109,14,1,typicality,0,bathroom,sun_afcoljnjfoxjtgja.tif,130,1.5,0,0.866666666666667,6591.573435542,6598.305179917,4,NaN,6598.311351208,6598.329718958,6599.189723333,NaN,NaN
109,15,1,typicality,0,bathroom,sun_aclfzgynxzxlbepz.tif,129,1.5,0,1.36666666666667,6599.194368792,6602.738114667,4,NaN,6602.743906042,6602.763165083,6604.123199458,NaN,NaN
109,16,1,typicality,0,bathroom,sun_acduarbnmmoglmiv.tif,126,1.5,0,1.05,6604.1393625,6609.169666458,2,NaN,6609.175934542,6609.194242333,6610.237627667,NaN,NaN
109,17,1,typicality,0,bathroom,sun_auzqhkafidnkrwmo.tif,164,1.5,0,1.21666666666667,6610.249961542,6614.74603125,5,NaN,6614.752275375,6614.77087175,6615.980912542,NaN,NaN
109,18,1,typicality,0,bathroom,sun_aofnryafpsjimzsb.tif,150,1.5,0,0.816666666666667,6615.995541417,6621.29712925,4,NaN,6621.302842417,6621.321002042,6622.131006875,NaN,NaN
109,19,1,typicality,0,bathroom,sun_apmqjbnwghzuhhzh.tif,156,1.5,0,1,6622.135562,6625.937664583,3,NaN,6625.943450333,6625.961722917,6626.955061542,NaN,NaN
109,20,1,typicality,0,bathroom,sun_abjtwfukuwddzted.tif,125,1.5,0,1.21666666666667,6626.960266625,6631.193089792,1,NaN,6631.199361208,6631.21771225,6632.427752625,NaN,NaN
109,21,1,typicality,0,bathroom,sun_awnqiikzaispgmwo.tif,166,1.5,0,1.46666666666667,6632.445918833,6637.097686167,4,NaN,6637.103460875,6637.121822167,6638.58188,NaN,NaN
109,22,1,typicality,0,bathroom,sun_aljolscmmzydegqp.tif,143,1.5,0,1.4,6638.600039667,6643.513959583,2,NaN,6643.520402792,6643.539003917,6644.93238675,NaN,NaN
109,23,1,typicality,0,bathroom,sun_abapwbhyhkfixyex.tif,124,1.5,0,0.783333333333333,6644.948537375,6648.5857885,5,NaN,6648.591553833,6648.609890333,6649.386562167,NaN,NaN
109,24,1,typicality,0,bathroom,labelme_sfxiulhjbhlyiyt.tif,121,1.5,0,1.21666666666667,6649.39211325,6654.265677708,7,NaN,6654.271698125,6654.29004,6655.500094125,NaN,NaN
109,25,1,typicality,0,bathroom,sun_axldvoqbuvuggfmq.tif,167,1.5,0,1.35,6655.519449333,6659.3856365,5,NaN,6659.391567833,6659.410141875,6660.753515458,NaN,NaN
109,1,2,typicality,0,bathroom,sun_aoybiabnpadelefl.tif,151,1.5,0,1.65,6667.887390792,6671.601281625,1,NaN,6671.6070765,6671.625380125,6673.268763417,NaN,NaN
109,2,2,typicality,0,bathroom,sun_apkruvsevgegsdwp.tif,154,1.5,0,1.01666666666667,6673.287483583,6676.562802625,7,NaN,6676.586905125,6676.611542,6677.621546833,NaN,NaN
109,3,2,typicality,0,bathroom,sun_ahijqszoswveeyji.tif,138,1.5,0,1.58333333333333,6677.626718125,6681.024885208,4,NaN,6681.032344083,6681.050633,6682.627353458,NaN,NaN
109,4,2,typicality,0,bathroom,sun_aunuadmjocsddsrl.tif,162,1.5,0,0.7,6682.638252625,6686.753016333,6,NaN,6686.759137667,6686.77777,6687.471108583,NaN,NaN
109,5,2,typicality,0,bathroom,sun_apkxzenqapsujocq.tif,155,1.5,0,1.23333333333333,6687.475820292,6690.824643208,6,NaN,6690.831100375,6690.849586958,6692.076300708,NaN,NaN
109,6,2,typicality,0,bathroom,sun_akiytfaagpdsphgz.tif,141,1.5,0,0.816666666666667,6692.09122475,6695.793593167,2,NaN,6695.799547833,6695.817948042,6696.627953833,NaN,NaN
109,7,2,typicality,0,bathroom,sun_agrwbmhcpmfuwmsg.tif,134,1.5,0,0.733333333333333,6696.632607292,6700.329503833,3,NaN,6700.335335417,6700.353748667,6701.0804205,NaN,NaN
109,8,2,typicality,0,bathroom,sun_agguqiubmwhqqunb.tif,132,1.5,0,1.15,6701.085384625,6704.961463667,3,NaN,6704.96722025,6704.985542625,6706.128924583,NaN,NaN
109,9,2,typicality,0,bathroom,sun_axyrejkiiaqiurjk.tif,169,1.5,0,0.933333333333333,6706.137652667,6711.240909375,2,NaN,6711.246958667,6711.265385292,6712.192056417,NaN,NaN
109,10,2,typicality,0,bathroom,sun_aavhrsfjbserjtht.tif,123,1.5,0,0.916666666666667,6712.197467875,6716.208617375,4,NaN,6716.215385708,6716.233807792,6717.143812292,NaN,NaN
109,11,2,typicality,0,bathroom,sun_avhrdrntsqrjzccq.tif,165,1.5,0,1.26666666666667,6717.149348583,6720.545268375,1,NaN,6720.552023125,6720.570281917,6721.830338667,NaN,NaN
109,12,2,typicality,0,bathroom,sun_aqrpegblszgcoujh.tif,158,1.5,0,0.933333333333333,6721.849685208,6724.817297417,3,NaN,6724.82303675,6724.8413655,6725.768039083,NaN,NaN
109,13,2,typicality,0,bathroom,sun_ambriybtogmepttm.tif,146,1.5,0,1,6725.773598417,6729.38488325,1,NaN,6729.390868917,6729.409147292,6730.402486417,NaN,NaN
109,14,2,typicality,0,bathroom,sun_acgyywnybuveqsro.tif,128,1.5,0,1,6730.408083042,6733.82478175,5,NaN,6733.830732833,6733.849101583,6734.842438292,NaN,NaN
109,15,2,typicality,0,bathroom,sun_aggnnqpdorgxpvce.tif,131,1.5,0,1.21666666666667,6734.846881167,6737.960488667,3,NaN,6737.971045,6737.990024375,6739.200042917,NaN,NaN
109,16,2,typicality,0,bathroom,sun_apjevzvycyhuqghb.tif,153,1.5,0,1.85,6739.2142885,6743.8970645,4,NaN,6743.903235292,6743.921603833,6745.764970125,NaN,NaN
109,17,2,typicality,0,bathroom,sun_aspsyogrekjtfozg.tif,160,1.5,0,0.766666666666667,6745.7845915,6749.137033375,2,NaN,6749.150117708,6749.169369333,6749.929373875,NaN,NaN
109,18,2,typicality,0,bathroom,sun_axxbkopsgyouuebh.tif,168,1.5,0,0.966666666666667,6749.934457,6754.664365125,6,NaN,6754.670852583,6754.68937025,6755.649376125,NaN,NaN
109,19,2,typicality,0,bathroom,sun_ahaulkltgpkeeemi.tif,136,1.5,0,1.4,6755.654821458,6758.793402417,5,NaN,6758.799979,6758.818205542,6760.211589042,NaN,NaN
109,20,2,typicality,0,bathroom,sun_apynckhmoftszqoq.tif,157,1.5,0,0.933333333333333,6760.233034583,6764.529086333,3,NaN,6764.534820125,6764.553080458,6765.479753083,NaN,NaN
109,21,2,typicality,0,bathroom,sun_ahqjwnzgolcaoidx.tif,139,1.5,0,1.7,6765.484459708,6768.984883375,6,NaN,6768.990841542,6769.009060458,6770.702417375,NaN,NaN
109,22,2,typicality,0,bathroom,sun_ahcvzmoyaycdoftf.tif,137,1.5,0,0.916666666666667,6770.715837167,6773.712193667,7,NaN,6773.740533792,6773.764170417,6774.674178917,NaN,NaN
109,23,2,typicality,0,bathroom,sun_ausgutylgojavyoq.tif,163,1.5,0,0.833333333333333,6774.679066917,6778.320747375,4,NaN,6778.327741083,6778.345996917,6779.172667583,NaN,NaN
109,24,2,typicality,0,bathroom,sun_azqyogdvyhahyram.tif,170,1.5,0,0.783333333333333,6779.178584292,6782.753437417,7,NaN,6782.759229208,6782.777608625,6783.554280417,NaN,NaN
109,25,2,typicality,0,bathroom,sun_atstyziqcmkahyxk.tif,161,1.5,0,1.4,6783.559715083,6787.841177083,6,NaN,6787.8468815,6787.865294333,6789.2586675,NaN,NaN
