sub_num,trial,block,task,is_practice,category,image,texture,duration,mask_dur,jitter,stim_time,time_of_resp,trial_response,mask_time,fix_time,jit_onset,trial_end,trial_accuracy,RT
137,1,0,complexity,1,bathroom,bathroom_practice3.tif,223,1.5,0,1.56666666666667,1947.211367208,1952.322507166,1,NaN,1952.329231708,1952.347732833,1953.907750625,NaN,NaN
137,2,0,complexity,1,bathroom,bathroom_practice5.tif,225,1.5,0,1.1,1953.928753708,1960.722483875,3,NaN,1960.728195875,1960.746576958,1961.839943375,NaN,NaN
137,3,0,complexity,1,bathroom,bathroom_practice2.tif,222,1.5,0,1.51666666666667,1961.848153916,1964.162089875,7,NaN,1964.167734208,1964.18596375,1965.696020833,NaN,NaN
137,4,0,complexity,1,bathroom,bathroom_practice4.tif,224,1.5,0,1.15,1965.712325333,1968.434249291,1,NaN,1968.439831583,1968.458191416,1969.601578125,NaN,NaN
137,5,0,complexity,1,bathroom,bathroom_practice1.tif,221,1.5,0,1.26666666666667,1969.611849958,1975.178259125,1,NaN,1975.18437125,1975.203015666,1976.463063291,NaN,NaN
137,1,1,complexity,0,bathroom,sun_abapwbhyhkfixyex.tif,124,1.5,0,0.75,1980.97083225,1987.121751541,5,NaN,1987.127721041,1987.146105125,1987.889443041,NaN,NaN
137,2,1,complexity,0,bathroom,sun_akiytfaagpdsphgz.tif,141,1.5,0,1.28333333333333,1987.894350541,1993.833898166,3,NaN,1993.839752958,1993.858442375,1995.135146416,NaN,NaN
137,3,1,complexity,0,bathroom,sun_axxbkopsgyouuebh.tif,168,1.5,0,1.76666666666667,1995.153291333,2001.514437791,1,NaN,2001.520011583,2001.538343083,2003.298386,NaN,NaN
137,4,1,complexity,0,bathroom,sun_abjtwfukuwddzted.tif,125,1.5,0,1.28333333333333,2003.311565708,2006.269937333,1,NaN,2006.294562708,2006.317901666,2007.594607541,NaN,NaN
137,5,1,complexity,0,bathroom,sun_amzlamotzwfkwjco.tif,147,1.5,0,1.8,2007.612234583,2011.026114833,5,NaN,2011.031700041,2011.05,2012.843373166,NaN,NaN
137,6,1,complexity,0,bathroom,sun_aofnryafpsjimzsb.tif,150,1.5,0,0.716666666666667,2012.863342041,2016.569674541,5,NaN,2016.575588666,2016.59381825,2017.303822291,NaN,NaN
137,7,1,complexity,0,bathroom,sun_asfwthctfqerjvxr.tif,159,1.5,0,1,2017.309968333,2021.37848575,5,NaN,2021.384063041,2021.402405291,2022.395742166,NaN,NaN
137,8,1,complexity,0,bathroom,sun_apjevzvycyhuqghb.tif,153,1.5,0,1.21666666666667,2022.400237625,2026.44280675,6,NaN,2026.44856525,2026.466896458,2027.676941416,NaN,NaN
137,9,1,complexity,0,bathroom,sun_aapitsgbtktqubfy.tif,122,1.5,0,1.55,2027.690752083,2030.866623,2,NaN,2030.871972375,2030.890384708,2032.433777583,NaN,NaN
137,10,1,complexity,0,bathroom,sun_aclfzgynxzxlbepz.tif,129,1.5,0,2,2032.450538708,2035.362362083,1,NaN,2035.367767958,2035.386137208,2037.379525625,NaN,NaN
137,11,1,complexity,0,bathroom,sun_aqrpegblszgcoujh.tif,158,1.5,0,0.716666666666667,2037.396316083,2044.274190791,4,NaN,2044.280074,2044.298618833,2045.008623125,NaN,NaN
137,12,1,complexity,0,bathroom,sun_awnqiikzaispgmwo.tif,166,1.5,0,0.933333333333333,2045.012922791,2047.782724583,1,NaN,2047.811173083,2047.83428725,2048.760959125,NaN,NaN
137,13,1,complexity,0,bathroom,sun_axyrejkiiaqiurjk.tif,169,1.5,0,1.58333333333333,2048.765615625,2052.362736708,6,NaN,2052.368668625,2052.387040875,2053.963752166,NaN,NaN
137,14,1,complexity,0,bathroom,sun_aspsyogrekjtfozg.tif,160,1.5,0,0.9,2053.98129875,2056.842149208,7,NaN,2056.847648125,2056.866007291,2057.75934625,NaN,NaN
137,15,1,complexity,0,bathroom,sun_anryaplzeujmzfkd.tif,149,1.5,0,1.16666666666667,2057.763809166,2060.46144525,1,NaN,2060.489319791,2060.512485375,2061.672517958,NaN,NaN
137,16,1,complexity,0,bathroom,sun_ausgutylgojavyoq.tif,163,1.5,0,0.733333333333333,2061.682868375,2065.170243166,7,NaN,2065.175616791,2065.193915458,2065.920587375,NaN,NaN
137,17,1,complexity,0,bathroom,sun_ahijqszoswveeyji.tif,138,1.5,0,1.15,2065.926357125,2068.889107208,5,NaN,2068.917876666,2068.938921333,2070.082304541,NaN,NaN
137,18,1,complexity,0,bathroom,sun_acgyywnybuveqsro.tif,128,1.5,0,1.01666666666667,2070.091451333,2073.065537458,2,NaN,2073.071316541,2073.089616833,2074.099649583,NaN,NaN
137,19,1,complexity,0,bathroom,sun_aggnnqpdorgxpvce.tif,131,1.5,0,0.883333333333333,2074.107656625,2077.890329708,5,NaN,2077.895727666,2077.913995583,2078.790668041,NaN,NaN
137,20,1,complexity,0,bathroom,sun_avhrdrntsqrjzccq.tif,165,1.5,0,1.65,2078.794961416,2081.970343208,6,NaN,2081.976901666,2081.995296166,2083.63867025,NaN,NaN
137,21,1,complexity,0,bathroom,sun_aghyqhbptboemmoq.tif,133,1.5,0,0.75,2083.651679166,2086.329761958,1,NaN,2086.360955833,2086.384390708,2087.127765291,NaN,NaN
137,22,1,complexity,0,bathroom,sun_acegryoqftbzowsg.tif,127,1.5,0,1.28333333333333,2087.140804541,2091.450130208,3,NaN,2091.455918208,2091.474488291,2092.751190666,NaN,NaN
137,23,1,complexity,0,bathroom,sun_ambriybtogmepttm.tif,146,1.5,0,1.25,2092.768054416,2095.618105208,2,NaN,2095.623558708,2095.642775166,2096.88614525,NaN,NaN
137,24,1,complexity,0,bathroom,sun_agrwbmhcpmfuwmsg.tif,134,1.5,0,0.833333333333333,2096.904096958,2100.049557333,2,NaN,2100.05531325,2100.073622375,2100.900294958,NaN,NaN
137,25,1,complexity,0,bathroom,sun_acduarbnmmoglmiv.tif,126,1.5,0,1.05,2100.905029916,2103.37706175,7,NaN,2103.405295458,2103.428830916,2104.472198916,NaN,NaN
137,1,2,complexity,0,bathroom,sun_apkxzenqapsujocq.tif,155,1.5,0,0.95,2108.611499541,2111.543391916,1,NaN,2111.571437708,2111.594576208,2112.537914125,NaN,NaN
137,2,2,complexity,0,bathroom,sun_afcoljnjfoxjtgja.tif,130,1.5,0,1.55,2112.542742583,2115.913791875,5,NaN,2115.919386791,2115.937758666,2117.481154166,NaN,NaN
137,3,2,complexity,0,bathroom,sun_agyqfjcfkdcydepw.tif,135,1.5,0,1.2,2117.498886583,2120.689568166,2,NaN,2120.695251583,2120.713544125,2121.906916791,NaN,NaN
137,4,2,complexity,0,bathroom,sun_apkruvsevgegsdwp.tif,154,1.5,0,1.86666666666667,2121.920785083,2125.506043125,1,NaN,2125.511420291,2125.52977375,2127.389822041,NaN,NaN
137,5,2,complexity,0,bathroom,sun_alotolagknyrgtsk.tif,145,1.5,0,1.66666666666667,2127.408988541,2130.618208083,7,NaN,2130.627481291,2130.646544708,2132.306603208,NaN,NaN
137,6,2,complexity,0,bathroom,sun_axldvoqbuvuggfmq.tif,167,1.5,0,1.35,2132.318156708,2136.60144,3,NaN,2136.607314458,2136.625582625,2137.968959625,NaN,NaN
137,7,2,complexity,0,bathroom,sun_aoybiabnpadelefl.tif,151,1.5,0,1.11666666666667,2137.986772791,2140.841670166,3,NaN,2140.847260333,2140.865613,2141.975672208,NaN,NaN
137,8,2,complexity,0,bathroom,sun_apmqjbnwghzuhhzh.tif,156,1.5,0,0.95,2141.983520041,2144.954092416,2,NaN,2144.95964,2144.977996666,2145.921336375,NaN,NaN
137,9,2,complexity,0,bathroom,sun_aleqenyvunhactkl.tif,142,1.5,0,1.03333333333333,2145.925533416,2149.505289083,4,NaN,2149.51365775,2149.531940291,2150.558638833,NaN,NaN
137,10,2,complexity,0,bathroom,sun_aunuadmjocsddsrl.tif,162,1.5,0,1.01666666666667,2150.56640975,2153.546164458,2,NaN,2153.552162458,2153.570508083,2154.58055,NaN,NaN
137,11,2,complexity,0,bathroom,sun_agguqiubmwhqqunb.tif,132,1.5,0,1.81666666666667,2154.588487,2158.21822725,3,NaN,2158.223758333,2158.242025041,2160.052083083,NaN,NaN
137,12,2,complexity,0,bathroom,sun_alkosphxlxwjwgjd.tif,144,1.5,0,1.8,2160.070105458,2162.486796625,6,NaN,2162.514849333,2162.537921666,2164.331302041,NaN,NaN
137,13,2,complexity,0,bathroom,sun_atstyziqcmkahyxk.tif,161,1.5,0,1.26666666666667,2164.348249916,2167.245433291,1,NaN,2167.274224416,2167.297001541,2168.557044958,NaN,NaN
137,14,2,complexity,0,bathroom,sun_azqyogdvyhahyram.tif,170,1.5,0,1.66666666666667,2168.578825,2171.641405125,1,NaN,2171.647249041,2171.665510958,2173.325567291,NaN,NaN
137,15,2,complexity,0,bathroom,sun_aljolscmmzydegqp.tif,143,1.5,0,1.93333333333333,2173.344609833,2176.01654575,7,NaN,2176.045048041,2176.067849916,2177.994551458,NaN,NaN
137,16,2,complexity,0,bathroom,sun_ahcvzmoyaycdoftf.tif,137,1.5,0,1.75,2178.013121583,2182.873339791,3,NaN,2182.879071791,2182.897392708,2184.640783708,NaN,NaN
137,17,2,complexity,0,bathroom,sun_aavhrsfjbserjtht.tif,123,1.5,0,0.766666666666667,2184.660501875,2187.865404166,6,NaN,2187.894526541,2187.91755675,2188.6775615,NaN,NaN
137,18,2,complexity,0,bathroom,sun_ajlawzvmubibwbpy.tif,140,1.5,0,1.43333333333333,2188.682085333,2193.033888791,5,NaN,2193.0392725,2193.05766,2194.484365708,NaN,NaN
137,19,2,complexity,0,bathroom,sun_ahqjwnzgolcaoidx.tif,139,1.5,0,0.916666666666667,2194.502170666,2197.737868333,6,NaN,2197.743255291,2197.761569375,2198.671574833,NaN,NaN
137,20,2,complexity,0,bathroom,labelme_sfxiulhjbhlyiyt.tif,121,1.5,0,0.766666666666667,2198.676071791,2203.673845083,3,NaN,2203.679226708,2203.6975125,2204.45751825,NaN,NaN
137,21,2,complexity,0,bathroom,sun_apynckhmoftszqoq.tif,157,1.5,0,0.783333333333333,2204.461782458,2208.45761775,2,NaN,2208.463153375,2208.481441916,2209.258113958,NaN,NaN
137,22,2,complexity,0,bathroom,sun_anhioqovhscjqqwb.tif,148,1.5,0,1.31666666666667,2209.262438041,2213.417259875,3,NaN,2213.4231235,2213.442089708,2214.752127083,NaN,NaN
137,23,2,complexity,0,bathroom,sun_auzqhkafidnkrwmo.tif,164,1.5,0,1.1,2214.769270083,2218.281544666,6,NaN,2218.287080583,2218.305466375,2219.398857041,NaN,NaN
137,24,2,complexity,0,bathroom,sun_ahaulkltgpkeeemi.tif,136,1.5,0,1.26666666666667,2219.406468166,2222.545167916,2,NaN,2222.55092975,2222.569182791,2223.829228791,NaN,NaN
137,25,2,complexity,0,bathroom,sun_apeeialkgkuxddgh.tif,152,1.5,0,0.933333333333333,2223.846315791,2227.561574708,2,NaN,2227.567335875,2227.585632708,2228.5123035,NaN,NaN
