sub_num,trial,block,task,is_practice,category,image,texture,duration,mask_dur,jitter,stim_time,time_of_resp,trial_response,mask_time,fix_time,jit_onset,trial_end,trial_accuracy,RT
123,6,0,familiarity,1,kitchen,kitchen_practice2.tif,227,1.5,0,0.733333333333333,3165.054396708,3168.90757175,2,NaN,3168.913383041,3168.931700666,3169.658375083,NaN,NaN
123,7,0,familiarity,1,kitchen,kitchen_practice3.tif,228,1.5,0,1.3,3169.66362075,3172.628381083,6,NaN,3172.657519708,3172.6805145,3173.973930291,NaN,NaN
123,8,0,familiarity,1,kitchen,kitchen_practice1.tif,226,1.5,0,2,3173.991469416,3176.372180875,1,NaN,3176.377784458,3176.396182291,3178.389599041,NaN,NaN
123,9,0,familiarity,1,kitchen,kitchen_practice5.tif,230,1.5,0,1.81666666666667,3178.400115416,3182.307283833,5,NaN,3182.313198791,3182.33138,3184.141481,NaN,NaN
123,10,0,familiarity,1,kitchen,kitchen_practice4.tif,229,1.5,0,0.75,3184.159737083,3187.636307083,6,NaN,3187.645571541,3187.664701125,3188.408043208,NaN,NaN
123,1,1,familiarity,0,kitchen,sun_acxkpeoqbwcxfvip.tif,187,1.5,0,0.866666666666667,3192.160935791,3195.899690125,7,NaN,3195.9057725,3195.924718125,3196.78478925,NaN,NaN
123,2,1,familiarity,0,kitchen,sun_aggjlwcdjsjcaemh.tif,196,1.5,0,1.01666666666667,3196.789534416,3199.295121875,1,NaN,3199.323668666,3199.347673333,3200.357850708,NaN,NaN
123,3,1,familiarity,0,kitchen,sun_agorklincwxrdtga.tif,197,1.5,0,1.78333333333333,3200.366867416,3203.620182916,6,NaN,3203.625623166,3203.643999333,3205.420748875,NaN,NaN
123,4,1,familiarity,0,kitchen,sun_aadbddgrdsjugojn.tif,174,1.5,0,1.85,3205.4396275,3208.762849958,2,NaN,3208.790672416,3208.814237875,3210.657634916,NaN,NaN
123,5,1,familiarity,0,kitchen,sun_ahdycvpopffkzzsu.tif,200,1.5,0,1.83333333333333,3210.675705458,3213.727314833,3,NaN,3213.756137,3213.779680708,3215.606447625,NaN,NaN
123,6,1,familiarity,0,kitchen,sun_ahljzhgcdpomplvg.tif,201,1.5,0,1.56666666666667,3215.624301291,3218.544640583,4,NaN,3218.573752958,3218.59731175,3220.157406708,NaN,NaN
123,7,1,familiarity,0,kitchen,sun_agzzivivdpnawacl.tif,199,1.5,0,1.31666666666667,3220.176738166,3222.827461833,2,NaN,3222.832949291,3222.851243333,3224.161339958,NaN,NaN
123,8,1,familiarity,0,kitchen,sun_ahspylgoovwmwvgk.tif,203,1.5,0,1.75,3224.17949075,3226.795425416,6,NaN,3226.800922041,3226.819219791,3228.562656458,NaN,NaN
123,9,1,familiarity,0,kitchen,sun_azmutvzbxypaceni.tif,220,1.5,0,1.9,3228.577684625,3231.291041791,6,NaN,3231.316863291,3231.340689125,3233.234084958,NaN,NaN
123,10,1,familiarity,0,kitchen,sun_agubuxuukhzyzpdp.tif,198,1.5,0,1.76666666666667,3233.24925725,3235.946801208,4,NaN,3235.975201791,3235.998870291,3237.758948541,NaN,NaN
123,11,1,familiarity,0,kitchen,labelme_kxvouciolcpqplr.tif,172,1.5,0,1.05,3237.779665458,3240.744336583,2,NaN,3240.773445125,3240.797290041,3241.84071225,NaN,NaN
123,12,1,familiarity,0,kitchen,labelme_brsyyvweiuaazfr.tif,171,1.5,0,1.58333333333333,3241.851635166,3244.132030083,1,NaN,3244.137312166,3244.155729125,3245.732490958,NaN,NaN
123,13,1,familiarity,0,kitchen,sun_aegoxogugdkwpmpj.tif,190,1.5,0,0.983333333333333,3245.749692625,3248.435639541,2,NaN,3248.441155708,3248.459525791,3249.436202166,NaN,NaN
123,14,1,familiarity,0,kitchen,sun_adgqasybjyktddhj.tif,188,1.5,0,0.733333333333333,3249.440400041,3252.61164775,4,NaN,3252.617090666,3252.635481333,3253.362155583,NaN,NaN
123,15,1,familiarity,0,kitchen,sun_akchetnepxlcxhsu.tif,208,1.5,0,1.13333333333333,3253.366737041,3256.451739708,5,NaN,3256.459147541,3256.477739125,3257.604501958,NaN,NaN
123,16,1,familiarity,0,kitchen,sun_acgtpgfybqjmzeyw.tif,185,1.5,0,1.58333333333333,3257.613827541,3260.387842083,6,NaN,3260.393493541,3260.411781958,3261.988533458,NaN,NaN
123,17,1,familiarity,0,kitchen,sun_abrcnpqqhmjwekyf.tif,183,1.5,0,0.783333333333333,3262.00590925,3265.583194916,5,NaN,3265.600729375,3265.620593541,3266.397267958,NaN,NaN
123,18,1,familiarity,0,kitchen,sun_aapllqyqlykszopd.tif,176,1.5,0,0.8,3266.401984166,3269.5090135,2,NaN,3269.516972458,3269.535675041,3270.329016583,NaN,NaN
123,19,1,familiarity,0,kitchen,sun_aymvwlarqodbwuoc.tif,218,1.5,0,1.7,3270.333632625,3274.123663875,1,NaN,3274.129879791,3274.14816375,3275.84155925,NaN,NaN
123,20,1,familiarity,0,kitchen,sun_abftihopvusyfakt.tif,181,1.5,0,1.48333333333333,3275.85770175,3278.807066083,3,NaN,3278.834130583,3278.857057916,3280.333825166,NaN,NaN
123,21,1,familiarity,0,kitchen,sun_acwjdupvyjsugpay.tif,186,1.5,0,0.966666666666667,3280.350560166,3284.219154458,5,NaN,3284.224763,3284.243136916,3285.203144875,NaN,NaN
123,22,1,familiarity,0,kitchen,sun_aexklacwqwezaorf.tif,194,1.5,0,1.28333333333333,3285.207572333,3287.778247958,6,NaN,3287.80698175,3287.830255666,3289.1069895,NaN,NaN
123,23,1,familiarity,0,kitchen,sun_auaiucuqpdausiva.tif,212,1.5,0,0.783333333333333,3289.125453833,3292.675536875,3,NaN,3292.68141425,3292.699741208,3293.476417833,NaN,NaN
123,24,1,familiarity,0,kitchen,sun_aamedkxepzlwuxes.tif,175,1.5,0,1.36666666666667,3293.481042083,3297.506859208,2,NaN,3297.512758375,3297.530997333,3298.891062166,NaN,NaN
123,25,1,familiarity,0,kitchen,labelme_rykdqxenmhulbdn.tif,173,1.5,0,1.45,3298.909644625,3302.002822333,2,NaN,3302.008578458,3302.0270545,3303.470481916,NaN,NaN
123,1,2,familiarity,0,kitchen,sun_ajcbwwvdlsvjyzje.tif,206,1.5,0,1.81666666666667,3308.552053208,3313.466804416,4,NaN,3313.473276416,3313.491621666,3315.301821541,NaN,NaN
123,2,2,familiarity,0,kitchen,sun_aypmqwcualkenuoe.tif,219,1.5,0,0.816666666666667,3315.321618,3319.339625,3,NaN,3319.344851541,3319.363129583,3320.173140583,NaN,NaN
123,3,2,familiarity,0,kitchen,sun_ahpczsiumwwocjkv.tif,202,1.5,0,0.9,3320.177696291,3323.20651975,4,NaN,3323.221849208,3323.242133541,3324.135477208,NaN,NaN
123,4,2,familiarity,0,kitchen,sun_acfmftudsenhrfhy.tif,184,1.5,0,0.933333333333333,3324.140000125,3328.474886416,2,NaN,3328.480668625,3328.498987791,3329.42566125,NaN,NaN
123,5,2,familiarity,0,kitchen,sun_afuyedyxivkhecmu.tif,195,1.5,0,1.48333333333333,3329.430001291,3332.770701166,1,NaN,3332.776734416,3332.795042875,3334.2717855,NaN,NaN
123,6,2,familiarity,0,kitchen,sun_axyyrmzcupyhlivc.tif,217,1.5,0,1.48333333333333,3334.28844375,3337.7151175,2,NaN,3337.720639041,3337.738958083,3339.215702666,NaN,NaN
123,7,2,familiarity,0,kitchen,sun_aenotlpyftoioydp.tif,192,1.5,0,1.43333333333333,3339.233448291,3342.01094925,1,NaN,3342.016562708,3342.035190541,3343.461934166,NaN,NaN
123,8,2,familiarity,0,kitchen,sun_avszsnwsbuqfgzbn.tif,215,1.5,0,0.733333333333333,3343.475763791,3346.363253708,1,NaN,3346.369061083,3346.387410958,3347.114088583,NaN,NaN
123,9,2,familiarity,0,kitchen,sun_abpwyqmlzafvklqo.tif,182,1.5,0,0.966666666666667,3347.118533,3350.040250333,2,NaN,3350.066006666,3350.089781125,3351.049789666,NaN,NaN
123,10,2,familiarity,0,kitchen,sun_aixorpehvfykdynp.tif,205,1.5,0,0.916666666666667,3351.054653041,3353.700450125,3,NaN,3353.723037,3353.746024583,3354.656033166,NaN,NaN
123,11,2,familiarity,0,kitchen,sun_abdxkyyxwfskuaqb.tif,180,1.5,0,1.03333333333333,3354.660777166,3357.624153958,1,NaN,3357.6510735,3357.673727041,3358.700480625,NaN,NaN
123,12,2,familiarity,0,kitchen,sun_abdenxonkemggwsq.tif,179,1.5,0,0.733333333333333,3358.709721541,3361.264682916,2,NaN,3361.274234208,3361.292552875,3362.019230875,NaN,NaN
123,13,2,familiarity,0,kitchen,sun_aehawpgmrlhlvcow.tif,191,1.5,0,1.13333333333333,3362.023415666,3364.902511708,2,NaN,3364.93124775,3364.954814041,3366.081559,NaN,NaN
123,14,2,familiarity,0,kitchen,sun_ajkqhtgcbgpcwrwn.tif,207,1.5,0,0.883333333333333,3366.093080875,3369.299425875,3,NaN,3369.304697083,3369.323141666,3370.199814833,NaN,NaN
123,15,2,familiarity,0,kitchen,sun_aarfiyshqohlwkmo.tif,177,1.5,0,1.85,3370.204215125,3373.135669875,2,NaN,3373.164969083,3373.188852125,3375.032265416,NaN,NaN
123,16,2,familiarity,0,kitchen,sun_aeqdocilnnpuvuhx.tif,193,1.5,0,0.733333333333333,3375.047716541,3377.638318958,1,NaN,3377.666645541,3377.690909666,3378.417592583,NaN,NaN
123,17,2,familiarity,0,kitchen,sun_aqeaevwwwjoqhzvl.tif,211,1.5,0,1.95,3378.42260125,3381.110710791,1,NaN,3381.134865083,3381.15798675,3383.101375041,NaN,NaN
123,18,2,familiarity,0,kitchen,sun_auticobqsbwgoppi.tif,214,1.5,0,1.1,3383.119103125,3385.912399916,4,NaN,3385.940824666,3385.964433958,3387.057840708,NaN,NaN
123,19,2,familiarity,0,kitchen,sun_aaxxjlsuzvqlgylf.tif,178,1.5,0,1.31666666666667,3387.066581583,3391.235057833,5,NaN,3391.240960166,3391.259309125,3392.569364916,NaN,NaN
123,20,2,familiarity,0,kitchen,sun_amjjdeyrggfqgmom.tif,210,1.5,0,1.78333333333333,3392.586456125,3395.819360041,2,NaN,3395.824631166,3395.843044791,3397.619786166,NaN,NaN
123,21,2,familiarity,0,kitchen,sun_aunzlwrbjumxhwdj.tif,213,1.5,0,1.33333333333333,3397.639284333,3400.210214666,1,NaN,3400.239090083,3400.262660708,3401.589386625,NaN,NaN
123,22,2,familiarity,0,kitchen,sun_awcpdzzznmweyyhv.tif,216,1.5,0,0.95,3401.60712925,3404.482971541,2,NaN,3404.488529708,3404.506946875,3405.450290791,NaN,NaN
123,23,2,familiarity,0,kitchen,sun_akcjzhbbjlbogpdi.tif,209,1.5,0,1.93333333333333,3405.45472425,3408.495564791,5,NaN,3408.524053375,3408.545394833,3410.472123125,NaN,NaN
123,24,2,familiarity,0,kitchen,sun_ahywdevtimnqcsln.tif,204,1.5,0,1.28333333333333,3410.491103916,3414.277277375,4,NaN,3414.283473625,3414.301824416,3415.578589791,NaN,NaN
123,25,2,familiarity,0,kitchen,sun_admlmbcdswaszruo.tif,189,1.5,0,1.43333333333333,3415.598108166,3418.514582958,6,NaN,3418.520249208,3418.538642708,3419.965390416,NaN,NaN
