sub_num,trial,block,task,is_practice,category,image,texture,duration,mask_dur,jitter,stim_time,time_of_resp,trial_response,mask_time,fix_time,jit_onset,trial_end,trial_accuracy,RT
138,1,0,usability,1,bathroom,bathroom_practice3.tif,223,1.5,0,0.983333333333333,1084.480698375,1091.457185791,5,NaN,1091.463877625,1091.482630875,1092.459362291,NaN,NaN
138,2,0,usability,1,bathroom,bathroom_practice4.tif,224,1.5,0,1.78333333333333,1092.466170625,1095.705204541,4,NaN,1095.711064166,1095.729466791,1097.506319708,NaN,NaN
138,3,0,usability,1,bathroom,bathroom_practice5.tif,225,1.5,0,1.78333333333333,1097.517714458,1099.908346791,4,NaN,1099.937227791,1099.961222708,1101.73795075,NaN,NaN
138,4,0,usability,1,bathroom,bathroom_practice2.tif,222,1.5,0,1.26666666666667,1101.757077916,1104.677456208,5,NaN,1104.705364291,1104.7285385,1105.988588958,NaN,NaN
138,5,0,usability,1,bathroom,bathroom_practice1.tif,221,1.5,0,1.05,1106.009072125,1108.728524666,5,NaN,1108.734203416,1108.752788125,1109.796164833,NaN,NaN
138,1,1,usability,0,bathroom,sun_apynckhmoftszqoq.tif,157,1.5,0,1.01666666666667,1114.10393225,1116.740940541,4,NaN,1116.767699833,1116.791593166,1117.801630083,NaN,NaN
138,2,1,usability,0,bathroom,sun_avhrdrntsqrjzccq.tif,165,1.5,0,1.61666666666667,1117.808992625,1120.21720725,7,NaN,1120.222553666,1120.240919208,1121.850966166,NaN,NaN
138,3,1,usability,0,bathroom,sun_apkxzenqapsujocq.tif,155,1.5,0,1.16666666666667,1121.868750083,1124.536579708,6,NaN,1124.567111541,1124.590688708,1125.750724083,NaN,NaN
138,4,1,usability,0,bathroom,sun_aoybiabnpadelefl.tif,151,1.5,0,0.983333333333333,1125.759958541,1128.560604708,7,NaN,1128.566179041,1128.584400208,1129.561073375,NaN,NaN
138,5,1,usability,0,bathroom,sun_aggnnqpdorgxpvce.tif,131,1.5,0,0.783333333333333,1129.566170958,1132.146293958,6,NaN,1132.169491,1132.192953291,1132.969625416,NaN,NaN
138,6,1,usability,0,bathroom,sun_ambriybtogmepttm.tif,146,1.5,0,0.816666666666667,1132.974231583,1135.506984666,2,NaN,1135.532117291,1135.552883291,1136.362890416,NaN,NaN
138,7,1,usability,0,bathroom,sun_agrwbmhcpmfuwmsg.tif,134,1.5,0,1.1,1136.380578625,1139.195820208,4,NaN,1139.220197708,1139.24397125,1140.337347875,NaN,NaN
138,8,1,usability,0,bathroom,sun_amzlamotzwfkwjco.tif,147,1.5,0,1.65,1140.345463458,1142.625069375,1,NaN,1142.630832375,1142.649509583,1144.292888,NaN,NaN
138,9,1,usability,0,bathroom,sun_afcoljnjfoxjtgja.tif,130,1.5,0,1.13333333333333,1144.310206625,1146.52066075,7,NaN,1146.526110041,1146.544501125,1147.671212291,NaN,NaN
138,10,1,usability,0,bathroom,sun_aofnryafpsjimzsb.tif,150,1.5,0,0.766666666666667,1147.67998775,1150.312127958,6,NaN,1150.317968583,1150.336306666,1151.096311916,NaN,NaN
138,11,1,usability,0,bathroom,sun_apeeialkgkuxddgh.tif,152,1.5,0,1.25,1151.114145125,1154.202718291,5,NaN,1154.217257166,1154.236637916,1155.48000275,NaN,NaN
138,12,1,usability,0,bathroom,sun_aavhrsfjbserjtht.tif,123,1.5,0,1.5,1155.489112541,1158.200232458,5,NaN,1158.20586075,1158.224093125,1159.717466125,NaN,NaN
138,13,1,usability,0,bathroom,labelme_sfxiulhjbhlyiyt.tif,121,1.5,0,1.56666666666667,1159.735343708,1162.472285666,4,NaN,1162.47801025,1162.496456625,1164.056477208,NaN,NaN
138,14,1,usability,0,bathroom,sun_alkosphxlxwjwgjd.tif,144,1.5,0,1.45,1164.068525916,1167.264034791,3,NaN,1167.293210625,1167.316532916,1168.759921166,NaN,NaN
138,15,1,usability,0,bathroom,sun_atstyziqcmkahyxk.tif,161,1.5,0,1.53333333333333,1168.775977791,1171.608447375,4,NaN,1171.614115083,1171.632311041,1173.159036791,NaN,NaN
138,16,1,usability,0,bathroom,sun_aleqenyvunhactkl.tif,142,1.5,0,0.8,1173.176301416,1175.848452916,4,NaN,1175.853999333,1175.872370291,1176.665709916,NaN,NaN
138,17,1,usability,0,bathroom,sun_ahaulkltgpkeeemi.tif,136,1.5,0,0.933333333333333,1176.680617083,1179.16514175,3,NaN,1179.193273291,1179.216898666,1180.143571083,NaN,NaN
138,18,1,usability,0,bathroom,sun_aljolscmmzydegqp.tif,143,1.5,0,1.75,1180.149064458,1182.865328,3,NaN,1182.893802833,1182.917200833,1184.660595458,NaN,NaN
138,19,1,usability,0,bathroom,sun_ahijqszoswveeyji.tif,138,1.5,0,1.48333333333333,1184.678195041,1187.089442041,5,NaN,1187.117964,1187.141303416,1188.618009041,NaN,NaN
138,20,1,usability,0,bathroom,sun_aclfzgynxzxlbepz.tif,129,1.5,0,1.03333333333333,1188.635803958,1191.1126605,4,NaN,1191.117999166,1191.136384625,1192.163092666,NaN,NaN
138,21,1,usability,0,bathroom,sun_alotolagknyrgtsk.tif,145,1.5,0,1.23333333333333,1192.171777166,1194.992289666,5,NaN,1194.997845416,1195.016204,1196.242925916,NaN,NaN
138,22,1,usability,0,bathroom,sun_axxbkopsgyouuebh.tif,168,1.5,0,1.28333333333333,1196.256008875,1198.640710958,4,NaN,1198.646091125,1198.664616791,1199.941343708,NaN,NaN
138,23,1,usability,0,bathroom,sun_ahcvzmoyaycdoftf.tif,137,1.5,0,1.66666666666667,1199.958801708,1202.584427083,4,NaN,1202.589816666,1202.608139416,1204.268189083,NaN,NaN
138,24,1,usability,0,bathroom,sun_aghyqhbptboemmoq.tif,133,1.5,0,1.26666666666667,1204.284994041,1207.41841675,3,NaN,1207.435897083,1207.45659025,1208.716640166,NaN,NaN
138,25,1,usability,0,bathroom,sun_awnqiikzaispgmwo.tif,166,1.5,0,1.4,1208.730140916,1211.568622166,4,NaN,1211.573998666,1211.592652791,1212.986026708,NaN,NaN
138,1,2,usability,0,bathroom,sun_abjtwfukuwddzted.tif,125,1.5,0,1.66666666666667,1216.582662458,1221.288427166,3,NaN,1221.293932,1221.312267333,1222.972330666,NaN,NaN
138,2,2,usability,0,bathroom,sun_aqrpegblszgcoujh.tif,158,1.5,0,1.85,1222.991014125,1225.522651833,5,NaN,1225.546003375,1225.567570083,1227.410955458,NaN,NaN
138,3,2,usability,0,bathroom,sun_acgyywnybuveqsro.tif,128,1.5,0,1.65,1227.42275075,1230.357445375,6,NaN,1230.386317875,1230.409673833,1232.053044375,NaN,NaN
138,4,2,usability,0,bathroom,sun_azqyogdvyhahyram.tif,170,1.5,0,0.95,1232.068255166,1234.895359708,4,NaN,1234.925011458,1234.948152958,1235.891491458,NaN,NaN
138,5,2,usability,0,bathroom,sun_apmqjbnwghzuhhzh.tif,156,1.5,0,0.783333333333333,1235.896414208,1238.384482708,3,NaN,1238.412496125,1238.434928041,1239.211599125,NaN,NaN
138,6,2,usability,0,bathroom,sun_ajlawzvmubibwbpy.tif,140,1.5,0,1.13333333333333,1239.230188916,1242.203613541,4,NaN,1242.233151125,1242.256985,1243.383703083,NaN,NaN
138,7,2,usability,0,bathroom,sun_akiytfaagpdsphgz.tif,141,1.5,0,1.63333333333333,1243.392968416,1246.23255275,4,NaN,1246.2381015,1246.25674275,1247.883444333,NaN,NaN
138,8,2,usability,0,bathroom,sun_acduarbnmmoglmiv.tif,126,1.5,0,1.2,1247.8970225,1250.952438916,3,NaN,1250.957892,1250.976276583,1252.169640916,NaN,NaN
138,9,2,usability,0,bathroom,sun_ahqjwnzgolcaoidx.tif,139,1.5,0,1.71666666666667,1252.183874541,1255.06406525,3,NaN,1255.069612291,1255.088163708,1256.798203458,NaN,NaN
138,10,2,usability,0,bathroom,sun_asfwthctfqerjvxr.tif,159,1.5,0,0.9,1256.812025416,1259.896248583,4,NaN,1259.925651291,1259.949097458,1260.842435083,NaN,NaN
138,11,2,usability,0,bathroom,sun_apjevzvycyhuqghb.tif,153,1.5,0,0.9,1260.848225208,1263.371145416,7,NaN,1263.396151208,1263.417839375,1264.311177625,NaN,NaN
138,12,2,usability,0,bathroom,sun_agguqiubmwhqqunb.tif,132,1.5,0,0.766666666666667,1264.316156333,1267.527843666,5,NaN,1267.533608916,1267.552006083,1268.312010416,NaN,NaN
138,13,2,usability,0,bathroom,sun_acegryoqftbzowsg.tif,127,1.5,0,0.966666666666667,1268.316266333,1271.081000041,5,NaN,1271.108934958,1271.13242275,1272.09242825,NaN,NaN
138,14,2,usability,0,bathroom,sun_apkruvsevgegsdwp.tif,154,1.5,0,0.7,1272.098102458,1274.963694166,4,NaN,1274.988228791,1275.011821208,1275.70516075,NaN,NaN
138,15,2,usability,0,bathroom,sun_aunuadmjocsddsrl.tif,162,1.5,0,1.1,1275.710038458,1278.3949745,3,NaN,1278.412714291,1278.43416375,1279.527567041,NaN,NaN
138,16,2,usability,0,bathroom,sun_axyrejkiiaqiurjk.tif,169,1.5,0,1.33333333333333,1279.546802541,1282.616313958,4,NaN,1282.621632208,1282.640038833,1283.966768291,NaN,NaN
138,17,2,usability,0,bathroom,sun_ausgutylgojavyoq.tif,163,1.5,0,1.15,1283.984860125,1286.511710833,4,NaN,1286.517407416,1286.535720666,1287.679108416,NaN,NaN
138,18,2,usability,0,bathroom,sun_aapitsgbtktqubfy.tif,122,1.5,0,1.28333333333333,1287.6879095,1290.895935666,4,NaN,1290.901501125,1290.919931208,1292.196632,NaN,NaN
138,19,2,usability,0,bathroom,sun_agyqfjcfkdcydepw.tif,135,1.5,0,1.35,1292.214693,1295.216045583,5,NaN,1295.221587,1295.23978775,1296.583165041,NaN,NaN
138,20,2,usability,0,bathroom,sun_abapwbhyhkfixyex.tif,124,1.5,0,1.43333333333333,1296.599102291,1299.223758916,3,NaN,1299.229400916,1299.247633166,1300.674358291,NaN,NaN
138,21,2,usability,0,bathroom,sun_auzqhkafidnkrwmo.tif,164,1.5,0,0.916666666666667,1300.691911958,1303.296094291,7,NaN,1303.3014805,1303.319833708,1304.229838416,NaN,NaN
138,22,2,usability,0,bathroom,sun_anryaplzeujmzfkd.tif,149,1.5,0,0.766666666666667,1304.246464416,1306.815528416,7,NaN,1306.844422208,1306.867744708,1307.627750833,NaN,NaN
138,23,2,usability,0,bathroom,sun_anhioqovhscjqqwb.tif,148,1.5,0,0.866666666666667,1307.646533958,1310.308002666,4,NaN,1310.33617475,1310.359638958,1311.21964475,NaN,NaN
138,24,2,usability,0,bathroom,sun_axldvoqbuvuggfmq.tif,167,1.5,0,0.833333333333333,1311.224506333,1313.827463791,3,NaN,1313.856217375,1313.879793791,1314.70646575,NaN,NaN
138,25,2,usability,0,bathroom,sun_aspsyogrekjtfozg.tif,160,1.5,0,0.75,1314.712999375,1317.617561458,4,NaN,1317.642470958,1317.666344,1318.409682166,NaN,NaN
