sub_num,trial,block,task,is_practice,category,image,texture,duration,mask_dur,jitter,stim_time,time_of_resp,trial_response,mask_time,fix_time,jit_onset,trial_end,trial_accuracy,RT
129,1,0,aesthetic,1,bathroom,bathroom_practice1.tif,221,1.5,0,1.6,5552.986653417,5557.926067333,3,NaN,5557.931674333,5557.950351708,5559.543734417,NaN,NaN
129,2,0,aesthetic,1,bathroom,bathroom_practice2.tif,222,1.5,0,1.26666666666667,5559.560949625,5562.33303175,6,NaN,5562.358064708,5562.380915667,5563.640961208,NaN,NaN
129,3,0,aesthetic,1,bathroom,bathroom_practice3.tif,223,1.5,0,1.15,5563.6585305,5571.325576708,4,NaN,5571.330872833,5571.349256083,5572.492645875,NaN,NaN
129,4,0,aesthetic,1,bathroom,bathroom_practice4.tif,224,1.5,0,1.75,5572.500785958,5575.726154333,3,NaN,5575.731468042,5575.749803,5577.493186375,NaN,NaN
129,5,0,aesthetic,1,bathroom,bathroom_practice5.tif,225,1.5,0,0.85,5577.511766,5580.487044875,2,NaN,5580.515214625,5580.538518417,5581.38185775,NaN,NaN
129,1,1,aesthetic,0,bathroom,sun_acgyywnybuveqsro.tif,128,1.5,0,0.933333333333333,5586.008826833,5589.102415625,5,NaN,5589.109078958,5589.12773625,5590.054408875,NaN,NaN
129,2,1,aesthetic,0,bathroom,sun_ahcvzmoyaycdoftf.tif,137,1.5,0,1.18333333333333,5590.059017792,5592.665381375,4,NaN,5592.69256175,5592.71593775,5593.892659958,NaN,NaN
129,3,1,aesthetic,0,bathroom,sun_ahqjwnzgolcaoidx.tif,139,1.5,0,1.56666666666667,5593.901668667,5596.88614725,4,NaN,5596.891357042,5596.909587,5598.469635708,NaN,NaN
129,4,1,aesthetic,0,bathroom,sun_ambriybtogmepttm.tif,146,1.5,0,1.38333333333333,5598.486970917,5601.333839292,5,NaN,5601.339243875,5601.357709333,5602.734416958,NaN,NaN
129,5,1,aesthetic,0,bathroom,sun_apkruvsevgegsdwp.tif,154,1.5,0,1.23333333333333,5602.751510458,5605.317662417,3,NaN,5605.323065708,5605.341409958,5606.568129417,NaN,NaN
129,6,1,aesthetic,0,bathroom,sun_apkxzenqapsujocq.tif,155,1.5,0,1.83333333333333,5606.584886208,5609.40596125,4,NaN,5609.411249667,5609.429614083,5611.256339333,NaN,NaN
129,7,1,aesthetic,0,bathroom,sun_agyqfjcfkdcydepw.tif,135,1.5,0,1.1,5611.2784615,5614.449123042,6,NaN,5614.477066708,5614.500299125,5615.593673167,NaN,NaN
129,8,1,aesthetic,0,bathroom,sun_anhioqovhscjqqwb.tif,148,1.5,0,1.71666666666667,5615.603008458,5618.701993917,3,NaN,5618.707181125,5618.725532333,5620.43558425,NaN,NaN
129,9,1,aesthetic,0,bathroom,sun_alotolagknyrgtsk.tif,145,1.5,0,1.01666666666667,5620.452721458,5624.5419265,2,NaN,5624.547308792,5624.565660875,5625.575695042,NaN,NaN
129,10,1,aesthetic,0,bathroom,sun_auzqhkafidnkrwmo.tif,164,1.5,0,1.36666666666667,5625.583835417,5628.461641083,4,NaN,5628.467283625,5628.48568075,5629.845718292,NaN,NaN
129,11,1,aesthetic,0,bathroom,sun_agguqiubmwhqqunb.tif,132,1.5,0,0.75,5629.862911208,5632.757600875,2,NaN,5632.763008375,5632.781255792,5633.524593167,NaN,NaN
129,12,1,aesthetic,0,bathroom,sun_acduarbnmmoglmiv.tif,126,1.5,0,1.31666666666667,5633.528968083,5637.653720125,4,NaN,5637.659803125,5637.678142083,5638.988196125,NaN,NaN
129,13,1,aesthetic,0,bathroom,sun_aclfzgynxzxlbepz.tif,129,1.5,0,1.33333333333333,5639.011539125,5641.870215292,3,NaN,5641.875606083,5641.89392375,5643.220632083,NaN,NaN
129,14,1,aesthetic,0,bathroom,sun_axxbkopsgyouuebh.tif,168,1.5,0,1.41666666666667,5643.234323,5646.037866167,2,NaN,5646.044177917,5646.062512458,5647.472568792,NaN,NaN
129,15,1,aesthetic,0,bathroom,sun_avhrdrntsqrjzccq.tif,165,1.5,0,1.93333333333333,5647.490654583,5650.453896333,6,NaN,5650.459210625,5650.477524083,5652.404226667,NaN,NaN
129,16,1,aesthetic,0,bathroom,sun_ahijqszoswveeyji.tif,138,1.5,0,1.68333333333333,5652.416394542,5655.354284875,6,NaN,5655.382510917,5655.406263375,5657.082976042,NaN,NaN
129,17,1,aesthetic,0,bathroom,sun_atstyziqcmkahyxk.tif,161,1.5,0,0.783333333333333,5657.100039833,5659.784943792,3,NaN,5659.812002167,5659.834998917,5660.611671375,NaN,NaN
129,18,1,aesthetic,0,bathroom,sun_asfwthctfqerjvxr.tif,159,1.5,0,1.93333333333333,5660.617295458,5663.47056325,7,NaN,5663.498316167,5663.521522958,5665.448247083,NaN,NaN
129,19,1,aesthetic,0,bathroom,sun_aofnryafpsjimzsb.tif,150,1.5,0,1.18333333333333,5665.466306583,5668.117604625,6,NaN,5668.145035917,5668.168627917,5669.345326042,NaN,NaN
129,20,1,aesthetic,0,bathroom,sun_afcoljnjfoxjtgja.tif,130,1.5,0,1.61666666666667,5669.35503525,5672.229508958,7,NaN,5672.235037917,5672.253665083,5673.863708833,NaN,NaN
129,21,1,aesthetic,0,bathroom,sun_akiytfaagpdsphgz.tif,141,1.5,0,1.16666666666667,5673.879358208,5677.205501125,5,NaN,5677.233779208,5677.257199125,5678.417231333,NaN,NaN
129,22,1,aesthetic,0,bathroom,sun_awnqiikzaispgmwo.tif,166,1.5,0,1.85,5678.42817325,5681.317998167,4,NaN,5681.323219333,5681.341428375,5683.184813125,NaN,NaN
129,23,1,aesthetic,0,bathroom,sun_apjevzvycyhuqghb.tif,153,1.5,0,1.68333333333333,5683.203326917,5685.842605625,3,NaN,5685.869826292,5685.893246917,5687.569968958,NaN,NaN
129,24,1,aesthetic,0,bathroom,sun_apynckhmoftszqoq.tif,157,1.5,0,1.98333333333333,5687.589156917,5690.48173325,1,NaN,5690.505425792,5690.528189375,5692.504890917,NaN,NaN
129,25,1,aesthetic,0,bathroom,sun_aoybiabnpadelefl.tif,151,1.5,0,1.28333333333333,5692.5252865,5696.125844875,5,NaN,5696.131200208,5696.149607208,5697.42633075,NaN,NaN
129,1,2,aesthetic,0,bathroom,sun_apmqjbnwghzuhhzh.tif,156,1.5,0,0.9,5702.227733542,5706.909169208,5,NaN,5706.915400875,5706.933766542,5707.827105792,NaN,NaN
129,2,2,aesthetic,0,bathroom,sun_aapitsgbtktqubfy.tif,122,1.5,0,1.95,5707.831761292,5710.842217208,3,NaN,5710.86843525,5710.891911292,5712.835279083,NaN,NaN
129,3,2,aesthetic,0,bathroom,sun_axyrejkiiaqiurjk.tif,169,1.5,0,1,5712.853954,5716.533891083,4,NaN,5716.539699875,5716.557930917,5717.551270042,NaN,NaN
129,4,2,aesthetic,0,bathroom,sun_ahaulkltgpkeeemi.tif,136,1.5,0,0.733333333333333,5717.55633625,5721.149979958,2,NaN,5721.155292083,5721.173458083,5721.900130833,NaN,NaN
129,5,2,aesthetic,0,bathroom,sun_amzlamotzwfkwjco.tif,147,1.5,0,1.2,5721.904396167,5725.0457615,5,NaN,5725.053382333,5725.072012833,5726.265383083,NaN,NaN
129,6,2,aesthetic,0,bathroom,sun_aunuadmjocsddsrl.tif,162,1.5,0,1.21666666666667,5726.2768825,5729.541749458,1,NaN,5729.547025125,5729.565470292,5730.775517917,NaN,NaN
129,7,2,aesthetic,0,bathroom,sun_azqyogdvyhahyram.tif,170,1.5,0,0.933333333333333,5730.792905667,5734.053429167,1,NaN,5734.058847458,5734.077199792,5735.003870458,NaN,NaN
129,8,2,aesthetic,0,bathroom,sun_aqrpegblszgcoujh.tif,158,1.5,0,0.916666666666667,5735.00822,5738.036878875,5,NaN,5738.061768375,5738.082432208,5738.992435917,NaN,NaN
129,9,2,aesthetic,0,bathroom,sun_aspsyogrekjtfozg.tif,160,1.5,0,1.1,5738.997175583,5741.793447792,6,NaN,5741.82159575,5741.844561042,5742.937944958,NaN,NaN
129,10,2,aesthetic,0,bathroom,sun_axldvoqbuvuggfmq.tif,167,1.5,0,1.16666666666667,5742.946345375,5746.117192125,4,NaN,5746.122687917,5746.141008792,5747.301055125,NaN,NaN
129,11,2,aesthetic,0,bathroom,sun_abjtwfukuwddzted.tif,125,1.5,0,0.783333333333333,5747.31039675,5750.021714208,3,NaN,5750.026970667,5750.045330083,5750.822001625,NaN,NaN
129,12,2,aesthetic,0,bathroom,sun_abapwbhyhkfixyex.tif,124,1.5,0,1.95,5750.826359875,5757.749187292,3,NaN,5757.75489725,5757.773203792,5759.716896333,NaN,NaN
129,13,2,aesthetic,0,bathroom,sun_anryaplzeujmzfkd.tif,149,1.5,0,1.05,5759.725941458,5762.68880675,4,NaN,5762.717052083,5762.740332542,5763.783709917,NaN,NaN
129,14,2,aesthetic,0,bathroom,sun_ausgutylgojavyoq.tif,163,1.5,0,1.03333333333333,5763.79276675,5766.5490395,5,NaN,5766.554755542,5766.573164792,5767.599868167,NaN,NaN
129,15,2,aesthetic,0,bathroom,sun_aggnnqpdorgxpvce.tif,131,1.5,0,1.45,5767.607503292,5770.429371292,6,NaN,5770.434810792,5770.453232375,5771.896620083,NaN,NaN
129,16,2,aesthetic,0,bathroom,sun_aljolscmmzydegqp.tif,143,1.5,0,0.966666666666667,5771.914695542,5774.957626458,4,NaN,5774.962814292,5774.981150417,5775.941153542,NaN,NaN
129,17,2,aesthetic,0,bathroom,sun_aghyqhbptboemmoq.tif,133,1.5,0,0.966666666666667,5775.954780625,5778.71364575,2,NaN,5778.741138833,5778.764386208,5779.724389833,NaN,NaN
129,18,2,aesthetic,0,bathroom,sun_alkosphxlxwjwgjd.tif,144,1.5,0,1.2,5779.7291905,5782.630586417,3,NaN,5782.651573458,5782.673195167,5783.866550083,NaN,NaN
129,19,2,aesthetic,0,bathroom,sun_apeeialkgkuxddgh.tif,152,1.5,0,0.933333333333333,5783.876892333,5786.901351833,2,NaN,5786.906671958,5786.925004458,5787.851675833,NaN,NaN
129,20,2,aesthetic,0,bathroom,sun_aleqenyvunhactkl.tif,142,1.5,0,1.31666666666667,5787.856402542,5790.801193,2,NaN,5790.825914958,5790.848904958,5792.158951417,NaN,NaN
129,21,2,aesthetic,0,bathroom,sun_ajlawzvmubibwbpy.tif,140,1.5,0,1.18333333333333,5792.17686925,5795.037157875,5,NaN,5795.042613083,5795.060872417,5796.237592417,NaN,NaN
129,22,2,aesthetic,0,bathroom,labelme_sfxiulhjbhlyiyt.tif,121,1.5,0,1.71666666666667,5796.24787425,5798.876963042,4,NaN,5798.882531042,5798.900868833,5800.61090775,NaN,NaN
129,23,2,aesthetic,0,bathroom,sun_aavhrsfjbserjtht.tif,123,1.5,0,1.53333333333333,5800.629068375,5803.758094375,4,NaN,5803.780131917,5803.803265708,5805.329977833,NaN,NaN
129,24,2,aesthetic,0,bathroom,sun_acegryoqftbzowsg.tif,127,1.5,0,0.933333333333333,5805.349497875,5808.149722458,4,NaN,5808.155109708,5808.173436583,5809.100108958,NaN,NaN
129,25,2,aesthetic,0,bathroom,sun_agrwbmhcpmfuwmsg.tif,134,1.5,0,0.916666666666667,5809.121088667,5811.652172208,3,NaN,5811.670192542,5811.692854292,5812.602860042,NaN,NaN
