sub_num,trial,block,task,is_practice,category,image,texture,duration,mask_dur,jitter,stim_time,time_of_resp,trial_response,mask_time,fix_time,jit_onset,trial_end,trial_accuracy,RT
132,6,0,aesthetic,1,kitchen,kitchen_practice2.tif,227,1.5,0,1.08333333333333,9461.18887825,9465.063103458,6,NaN,9465.069416958,9465.087715833,9466.164435208,NaN,NaN
132,7,0,aesthetic,1,kitchen,kitchen_practice1.tif,226,1.5,0,1.06666666666667,9466.172352583,9468.823652375,5,NaN,9468.828989791,9468.847405416,9469.9074555,NaN,NaN
132,8,0,aesthetic,1,kitchen,kitchen_practice4.tif,229,1.5,0,1.11666666666667,9469.91561,9472.86313575,6,NaN,9472.868997916,9472.8874415,9473.997478375,NaN,NaN
132,9,0,aesthetic,1,kitchen,kitchen_practice3.tif,228,1.5,0,0.95,9474.006553291,9477.1986795,6,NaN,9477.204768708,9477.2230495,9478.166388916,NaN,NaN
132,10,0,aesthetic,1,kitchen,kitchen_practice5.tif,230,1.5,0,0.9,9478.171009958,9480.869120041,4,NaN,9480.889326875,9480.912297708,9481.805639625,NaN,NaN
132,1,1,aesthetic,0,kitchen,sun_ahljzhgcdpomplvg.tif,201,1.5,0,1.48333333333333,9485.8265635,9488.966811708,5,NaN,9488.976223208,9488.995325,9490.472048625,NaN,NaN
132,2,1,aesthetic,0,kitchen,sun_afuyedyxivkhecmu.tif,195,1.5,0,1.46666666666667,9490.489460708,9493.39977425,6,NaN,9493.405202291,9493.423607916,9494.883643458,NaN,NaN
132,3,1,aesthetic,0,kitchen,sun_adgqasybjyktddhj.tif,188,1.5,0,0.766666666666667,9494.902512583,9498.966899916,4,NaN,9498.972477791,9498.990876458,9499.750881791,NaN,NaN
132,4,1,aesthetic,0,kitchen,sun_ahpczsiumwwocjkv.tif,202,1.5,0,1.16666666666667,9499.755357791,9503.039168708,5,NaN,9503.045307708,9503.06358375,9504.223623333,NaN,NaN
132,5,1,aesthetic,0,kitchen,sun_agorklincwxrdtga.tif,197,1.5,0,1.6,9504.233185416,9507.25478,6,NaN,9507.260719666,9507.279053958,9508.872428375,NaN,NaN
132,6,1,aesthetic,0,kitchen,sun_auaiucuqpdausiva.tif,212,1.5,0,1.68333333333333,9508.887957416,9512.114221541,7,NaN,9512.143197083,9512.166419083,9513.843131166,NaN,NaN
132,7,1,aesthetic,0,kitchen,sun_aapllqyqlykszopd.tif,176,1.5,0,1.5,9513.858908083,9516.848063916,3,NaN,9516.876835833,9516.90001625,9518.393394375,NaN,NaN
132,8,1,aesthetic,0,kitchen,sun_awcpdzzznmweyyhv.tif,216,1.5,0,0.833333333333333,9518.412698916,9521.303411541,7,NaN,9521.308976333,9521.327530833,9522.154204041,NaN,NaN
132,9,1,aesthetic,0,kitchen,sun_aadbddgrdsjugojn.tif,174,1.5,0,0.9,9522.158744041,9525.000215125,2,NaN,9525.029524583,9525.053414708,9525.946753875,NaN,NaN
132,10,1,aesthetic,0,kitchen,sun_aegoxogugdkwpmpj.tif,190,1.5,0,0.933333333333333,9525.951454,9534.510860958,5,NaN,9534.516718458,9534.534988541,9535.461659291,NaN,NaN
132,11,1,aesthetic,0,kitchen,sun_abrcnpqqhmjwekyf.tif,183,1.5,0,0.9,9535.4671185,9538.554577166,5,NaN,9538.577546583,9538.596892666,9539.490231458,NaN,NaN
132,12,1,aesthetic,0,kitchen,sun_avszsnwsbuqfgzbn.tif,215,1.5,0,0.85,9539.494652208,9542.463291208,7,NaN,9542.491687625,9542.514460125,9543.357798375,NaN,NaN
132,13,1,aesthetic,0,kitchen,labelme_kxvouciolcpqplr.tif,172,1.5,0,1.83333333333333,9543.365358416,9546.79911125,2,NaN,9546.804590375,9546.822978166,9548.649685833,NaN,NaN
132,14,1,aesthetic,0,kitchen,sun_agzzivivdpnawacl.tif,199,1.5,0,0.733333333333333,9548.669705166,9551.289557625,1,NaN,9551.306830916,9551.328928458,9552.055607,NaN,NaN
132,15,1,aesthetic,0,kitchen,sun_aunzlwrbjumxhwdj.tif,213,1.5,0,1.63333333333333,9552.061198708,9554.682285,2,NaN,9554.710472375,9554.733603583,9556.360315791,NaN,NaN
132,16,1,aesthetic,0,kitchen,sun_aymvwlarqodbwuoc.tif,218,1.5,0,0.766666666666667,9556.379285583,9559.485915416,6,NaN,9559.516093708,9559.539179166,9560.2991855,NaN,NaN
132,17,1,aesthetic,0,kitchen,sun_abpwyqmlzafvklqo.tif,182,1.5,0,1.71666666666667,9560.315387666,9565.758733208,3,NaN,9565.76446375,9565.782853791,9567.492889791,NaN,NaN
132,18,1,aesthetic,0,kitchen,sun_abdxkyyxwfskuaqb.tif,180,1.5,0,1.51666666666667,9567.511906958,9572.566709333,4,NaN,9572.57236725,9572.590670625,9574.1007125,NaN,NaN
132,19,1,aesthetic,0,kitchen,sun_aaxxjlsuzvqlgylf.tif,178,1.5,0,1.25,9574.119182875,9577.423316791,6,NaN,9577.428780125,9577.447362791,9578.690743791,NaN,NaN
132,20,1,aesthetic,0,kitchen,sun_azmutvzbxypaceni.tif,220,1.5,0,1.41666666666667,9578.705597916,9582.02291375,6,NaN,9582.028484,9582.046884125,9583.4569315,NaN,NaN
132,21,1,aesthetic,0,kitchen,sun_axyyrmzcupyhlivc.tif,217,1.5,0,1.1,9583.47458425,9586.142475875,5,NaN,9586.148104208,9586.167533958,9587.260905833,NaN,NaN
132,22,1,aesthetic,0,kitchen,sun_ajkqhtgcbgpcwrwn.tif,207,1.5,0,0.95,9587.2699125,9590.527076375,3,NaN,9590.532793416,9590.550990375,9591.494329,NaN,NaN
132,23,1,aesthetic,0,kitchen,sun_aamedkxepzlwuxes.tif,175,1.5,0,1.45,9591.498732208,9594.606582125,2,NaN,9594.6194645,9594.638677416,9596.082069041,NaN,NaN
132,24,1,aesthetic,0,kitchen,sun_akcjzhbbjlbogpdi.tif,209,1.5,0,0.883333333333333,9596.102078791,9599.535057958,1,NaN,9599.540681583,9599.559042291,9600.435714083,NaN,NaN
132,25,1,aesthetic,0,kitchen,sun_ahywdevtimnqcsln.tif,204,1.5,0,1.23333333333333,9600.440109583,9604.526591416,2,NaN,9604.532287375,9604.550555958,9605.777277541,NaN,NaN
132,1,2,aesthetic,0,kitchen,sun_aeqdocilnnpuvuhx.tif,193,1.5,0,1.78333333333333,9610.7522925,9616.206466875,6,NaN,9616.212037125,9616.230458208,9618.007168125,NaN,NaN
132,2,2,aesthetic,0,kitchen,sun_aggjlwcdjsjcaemh.tif,196,1.5,0,1.8,9618.027197708,9621.806523541,3,NaN,9621.813264833,9621.831561875,9623.624931208,NaN,NaN
132,3,2,aesthetic,0,kitchen,sun_aixorpehvfykdynp.tif,205,1.5,0,0.8,9623.639769791,9626.289565083,4,NaN,9626.31886325,9626.343252583,9627.136590416,NaN,NaN
132,4,2,aesthetic,0,kitchen,sun_acfmftudsenhrfhy.tif,184,1.5,0,1.01666666666667,9627.148421291,9631.422268208,5,NaN,9631.428090083,9631.44625375,9632.456300541,NaN,NaN
132,5,2,aesthetic,0,kitchen,sun_acxkpeoqbwcxfvip.tif,187,1.5,0,0.85,9632.464352041,9635.271218416,7,NaN,9635.27685975,9635.295212583,9636.13855125,NaN,NaN
132,6,2,aesthetic,0,kitchen,sun_admlmbcdswaszruo.tif,189,1.5,0,1.83333333333333,9636.14832525,9639.049786666,5,NaN,9639.078170375,9639.101626791,9640.928339,NaN,NaN
132,7,2,aesthetic,0,kitchen,sun_aexklacwqwezaorf.tif,194,1.5,0,1.11666666666667,9640.946004,9644.374877458,7,NaN,9644.38166325,9644.400110625,9645.510153458,NaN,NaN
132,8,2,aesthetic,0,kitchen,sun_agubuxuukhzyzpdp.tif,198,1.5,0,1.88333333333333,9645.520671791,9648.550381208,6,NaN,9648.555850708,9648.574094541,9650.450796416,NaN,NaN
132,9,2,aesthetic,0,kitchen,sun_aypmqwcualkenuoe.tif,219,1.5,0,0.916666666666667,9650.468827958,9653.660182458,5,NaN,9653.688430833,9653.711820666,9654.621825125,NaN,NaN
132,10,2,aesthetic,0,kitchen,labelme_rykdqxenmhulbdn.tif,173,1.5,0,1.05,9654.626276625,9657.353682791,4,NaN,9657.382096458,9657.4049075,9658.448287083,NaN,NaN
132,11,2,aesthetic,0,kitchen,sun_aqeaevwwwjoqhzvl.tif,211,1.5,0,1.35,9658.457121458,9661.502915833,7,NaN,9661.508364875,9661.526565666,9662.86995025,NaN,NaN
132,12,2,aesthetic,0,kitchen,sun_ahspylgoovwmwvgk.tif,203,1.5,0,1.01666666666667,9662.887575291,9665.83091025,5,NaN,9665.8366345,9665.8549785,9666.865012708,NaN,NaN
132,13,2,aesthetic,0,kitchen,sun_aehawpgmrlhlvcow.tif,191,1.5,0,2,9666.87275,9669.798827791,6,NaN,9669.804246875,9669.822608333,9671.815983208,NaN,NaN
132,14,2,aesthetic,0,kitchen,sun_ahdycvpopffkzzsu.tif,200,1.5,0,0.9,9671.83525675,9674.890081041,2,NaN,9674.914240791,9674.937033541,9675.83037325,NaN,NaN
132,15,2,aesthetic,0,kitchen,sun_akchetnepxlcxhsu.tif,208,1.5,0,1.15,9675.835033083,9678.455460083,3,NaN,9678.484498625,9678.508070916,9679.651436958,NaN,NaN
132,16,2,aesthetic,0,kitchen,sun_abdenxonkemggwsq.tif,179,1.5,0,1.23333333333333,9679.661876083,9682.382296791,6,NaN,9682.387852958,9682.406322416,9683.633041166,NaN,NaN
132,17,2,aesthetic,0,kitchen,sun_ajcbwwvdlsvjyzje.tif,206,1.5,0,1.03333333333333,9683.651599375,9686.78241525,4,NaN,9686.78787025,9686.80624425,9687.832961125,NaN,NaN
132,18,2,aesthetic,0,kitchen,sun_acgtpgfybqjmzeyw.tif,185,1.5,0,0.783333333333333,9687.843125416,9695.742136291,3,NaN,9695.748409583,9695.769772625,9696.546444458,NaN,NaN
132,19,2,aesthetic,0,kitchen,sun_acwjdupvyjsugpay.tif,186,1.5,0,0.766666666666667,9696.551011625,9699.48031425,4,NaN,9699.507795708,9699.530996416,9700.291001166,NaN,NaN
132,20,2,aesthetic,0,kitchen,sun_auticobqsbwgoppi.tif,214,1.5,0,1.18333333333333,9700.29573475,9703.134753708,2,NaN,9703.151928916,9703.17344775,9704.350157083,NaN,NaN
132,21,2,aesthetic,0,kitchen,sun_aenotlpyftoioydp.tif,192,1.5,0,0.7,9704.361927916,9707.678250291,3,NaN,9707.683802791,9707.702019791,9708.395357625,NaN,NaN
132,22,2,aesthetic,0,kitchen,labelme_brsyyvweiuaazfr.tif,171,1.5,0,0.7,9708.399915291,9712.078198625,4,NaN,9712.085454541,9712.103653,9712.7969925,NaN,NaN
132,23,2,aesthetic,0,kitchen,sun_abftihopvusyfakt.tif,181,1.5,0,1.55,9712.814552416,9715.635364416,6,NaN,9715.66419025,9715.687108208,9717.230462916,NaN,NaN
132,24,2,aesthetic,0,kitchen,sun_aarfiyshqohlwkmo.tif,177,1.5,0,1.16666666666667,9717.242750625,9720.549714791,5,NaN,9720.555479416,9720.573767041,9721.733813833,NaN,NaN
132,25,2,aesthetic,0,kitchen,sun_amjjdeyrggfqgmom.tif,210,1.5,0,1.68333333333333,9721.742976333,9724.238589833,7,NaN,9724.243915666,9724.262418708,9725.939133416,NaN,NaN
