slide,sub1,sub2,pairID,trialID,stim1,stim2,instructionsLoop.thisRepN,instructionsLoop.thisTrialN,instructionsLoop.thisN,instructionsLoop.thisIndex,practice.thisRepN,practice.thisTrialN,practice.thisN,practice.thisIndex,trials.thisRepN,trials.thisTrialN,trials.thisN,trials.thisIndex,thisRow.t,notes,preparation.started,preparation.stopped,instructions.started,startResponse.started,slide_img.started,instructions.stopped,startResponse.keys,startResponse.rt,startResponse.duration,trial.started,polygon.started,polygon_2.started,image1.started,image2.started,rating_1.started,question.started,rating_2.started,question_2.started,block_text.started,trial.stopped,stim1pos,stim2pos,block,rating_1.response,rating_1.rt,rating_2.response,rating_2.rt,ITI.started,text.started,text.stopped,ITI.stopped,practice_over.started,text_2.started,space_practice_over.started,practice_over.stopped,space_practice_over.keys,space_practice_over.rt,space_practice_over.duration,breakBlocks.started,breakBlocks.stopped,startBlock.keys,startBlock.started,startBlock.rt,startBlock.duration,end.started,message_end.started,key_resp.started,end.stopped,key_resp.keys,key_resp.rt,key_resp.duration,participant,session,session_number,date,expName,psychopyVersion,frameRate,expStart,
instructions/Slide2.jpg,,,,,,,0,0,0,0,,,,,,,,,0.025926083000001654,,0.0020279579999851194,0.002130165999972178,0.008976582999991933,0.025926083000001654,0.025926083000001654,7.2733534159999635,space,7.2472022089999655,None,,,,,,,,,,,,,,,,,,,,,,,,,,,,,,,,,,,,,,,,,,,203,kitchen,2,2024-03-18_10h07.58.656,image_similarity_rating,2023.2.3,None,2024-03-18 10h08.25.781471 +0100,
instructions/Slide3.jpg,,,,,,,0,1,1,1,,,,,,,,,7.29883725000002,,,,7.274145540999996,7.29883725000002,7.29883725000002,20.856885250000005,space,13.557783749999999,None,,,,,,,,,,,,,,,,,,,,,,,,,,,,,,,,,,,,,,,,,,,203,kitchen,2,2024-03-18_10h07.58.656,image_similarity_rating,2023.2.3,None,2024-03-18 10h08.25.781471 +0100,
instructions/Slide4.jpg,,,,,,,0,2,2,2,,,,,,,,,20.87980854099999,,,,20.857540125000014,20.87980854099999,20.87980854099999,22.699082125000018,space,1.8189907919999655,None,,,,,,,,,,,,,,,,,,,,,,,,,,,,,,,,,,,,,,,,,,,203,kitchen,2,2024-03-18_10h07.58.656,image_similarity_rating,2023.2.3,None,2024-03-18 10h08.25.781471 +0100,
instructions/Slide5.jpg,,,,,,,0,3,3,3,,,,,,,,,22.725254666000012,,,,22.69986662499997,22.725254666000012,22.725254666000012,24.061032082999986,space,1.3354173339999988,None,,,,,,,,,,,,,,,,,,,,,,,,,,,,,,,,,,,,,,,,,,,203,kitchen,2,2024-03-18_10h07.58.656,image_similarity_rating,2023.2.3,None,2024-03-18 10h08.25.781471 +0100,
,110,128,practice,2,stimuli/own/kitchen/110_kit.jpg,stimuli/own/kitchen/128_kit.jpg,,,,,0,0,0,1,,,,,24.268949625000005,,,,,,,,,,,24.088914165999995,24.268949625000005,24.268949625000005,24.268949625000005,24.268949625000005,24.268949625000005,24.268949625000005,24.268949625000005,24.268949625000005,24.268949625000005,44.929327582999974,-7,7,0,4.0,18.894940540999983,5.0,19.709055291000027,44.92956616599997,44.93924466599998,45.39019958299997,45.223615749999965,,,,,,,,,,,,,,,,,,,,,203,kitchen,2,2024-03-18_10h07.58.656,image_similarity_rating,2023.2.3,None,2024-03-18 10h08.25.781471 +0100,
,110,133,practice,1,stimuli/own/kitchen/110_kit.jpg,stimuli/own/kitchen/133_kit.jpg,,,,,0,1,1,0,,,,,45.39019958299997,,,,,,,,,,,45.224026916000014,45.39019958299997,45.39019958299997,45.39019958299997,45.39019958299997,45.39019958299997,45.39019958299997,45.39019958299997,45.39019958299997,45.39019958299997,58.037696208,7,-7,0,4.0,11.215496916999996,4.0,12.559125583000025,58.03784620800002,58.04038404099998,58.49106833299999,58.323884625000005,,,,,,,,,,,,,,,,,,,,,203,kitchen,2,2024-03-18_10h07.58.656,image_similarity_rating,2023.2.3,None,2024-03-18 10h08.25.781471 +0100,
,128,133,practice,6,stimuli/own/kitchen/128_kit.jpg,stimuli/own/kitchen/133_kit.jpg,,,,,0,2,2,5,,,,,58.49106833299999,,,,,,,,,,,58.324288416,58.49106833299999,58.49106833299999,58.49106833299999,58.49106833299999,58.49106833299999,58.49106833299999,58.49106833299999,58.49106833299999,58.49106833299999,69.11239675000002,-7,7,0,4.0,10.583200750000003,3.0,2.5715038330000084,69.11253829099996,69.12225754100001,69.572377916,69.40685537499996,,,,,,,,,,,,,,,,,,,,,203,kitchen,2,2024-03-18_10h07.58.656,image_similarity_rating,2023.2.3,None,2024-03-18 10h08.25.781471 +0100,
,107,128,practice,7,stimuli/own/kitchen/107_kit.jpg,stimuli/own/kitchen/128_kit.jpg,,,,,0,3,3,6,,,,,69.572377916,,,,,,,,,,,69.407278083,69.572377916,69.572377916,69.572377916,69.572377916,69.572377916,69.572377916,69.572377916,69.572377916,69.572377916,89.82935349999997,7,-7,0,3.0,13.002102541,3.0,20.095931749999977,89.82949620799997,89.83898779099997,90.288259541,90.12333320800002,,,,,,,,,,,,,,,,,,,,,203,kitchen,2,2024-03-18_10h07.58.656,image_similarity_rating,2023.2.3,None,2024-03-18 10h08.25.781471 +0100,
,110,107,practice,4,stimuli/own/kitchen/110_kit.jpg,stimuli/own/kitchen/107_kit.jpg,,,,,0,4,4,3,,,,,90.288259541,,,,,,,,,,,90.12374812500002,90.288259541,90.288259541,90.288259541,90.288259541,90.288259541,90.288259541,90.288259541,90.288259541,90.288259541,104.73822000000001,7,-7,0,4.0,13.625457459000017,3.0,14.42013270800004,104.73836241599997,104.74010629100002,105.19140937499998,105.02322670799998,,,,,,,,,,,,,,,,,,,,,203,kitchen,2,2024-03-18_10h07.58.656,image_similarity_rating,2023.2.3,None,2024-03-18 10h08.25.781471 +0100,
,107,133,practice,9,stimuli/own/kitchen/107_kit.jpg,stimuli/own/kitchen/133_kit.jpg,,,,,0,5,5,8,,,,,105.19140937499998,,,,,,,,,,,105.02368879099998,105.19140937499998,105.19140937499998,105.19140937499998,105.19140937499998,105.19140937499998,105.19140937499998,105.19140937499998,105.19140937499998,105.19140937499998,110.07118012500001,7,-7,0,4.0,4.7788095829999975,3.0,3.738194125000007,110.07132958299997,110.073718208,110.52481708300002,110.35679325000001,,,,,,,,,,,,,,,,,,,,,203,kitchen,2,2024-03-18_10h07.58.656,image_similarity_rating,2023.2.3,None,2024-03-18 10h08.25.781471 +0100,
,107,108,practice,5,stimuli/own/kitchen/107_kit.jpg,stimuli/own/kitchen/108_kit.jpg,,,,,0,6,6,4,,,,,110.52481708300002,,,,,,,,,,,110.35730570800001,110.52481708300002,110.52481708300002,110.52481708300002,110.52481708300002,110.52481708300002,110.52481708300002,110.52481708300002,110.52481708300002,110.52481708300002,116.211485708,7,-7,0,4.0,5.002224124999998,3.0,5.637137791999976,116.21162554099999,116.22192137499997,116.67356945799997,116.50660712500002,,,,,,,,,,,,,,,,,,,,,203,kitchen,2,2024-03-18_10h07.58.656,image_similarity_rating,2023.2.3,None,2024-03-18 10h08.25.781471 +0100,
,128,108,practice,3,stimuli/own/kitchen/128_kit.jpg,stimuli/own/kitchen/108_kit.jpg,,,,,0,7,7,2,,,,,116.67356945799997,,,,,,,,,,,116.5070705,116.67356945799997,116.67356945799997,116.67356945799997,116.67356945799997,116.67356945799997,116.67356945799997,116.67356945799997,116.67356945799997,116.67356945799997,125.04545350000001,-7,7,0,2.0,8.282707291999998,2.0,5.843572499999993,125.045597375,125.05543749999998,125.50771041600001,125.339914125,,,,,,,,,,,,,,,,,,,,,203,kitchen,2,2024-03-18_10h07.58.656,image_similarity_rating,2023.2.3,None,2024-03-18 10h08.25.781471 +0100,
,108,110,practice,8,stimuli/own/kitchen/108_kit.jpg,stimuli/own/kitchen/110_kit.jpg,,,,,0,8,8,7,,,,,125.50771041600001,,,,,,,,,,,125.34040854099999,125.50771041600001,125.50771041600001,125.50771041600001,125.50771041600001,125.50771041600001,125.50771041600001,125.50771041600001,125.50771041600001,125.50771041600001,140.57095675,-7,7,0,4.0,14.386859625,3.0,14.981988958000045,140.57109958299998,140.573421291,141.020643333,140.856632708,,,,,,,,,,,,,,,,,,,,,203,kitchen,2,2024-03-18_10h07.58.656,image_similarity_rating,2023.2.3,None,2024-03-18 10h08.25.781471 +0100,
,108,133,practice,10,stimuli/own/kitchen/108_kit.jpg,stimuli/own/kitchen/133_kit.jpg,,,,,0,9,9,9,,,,,141.020643333,,,,,,,,,,,140.857055291,141.020643333,141.020643333,141.020643333,141.020643333,141.020643333,141.020643333,141.020643333,141.020643333,141.020643333,143.549712458,7,-7,0,3.0,2.5511923340000067,3.0,1.718309292000015,143.54985325,143.55537933300002,143.84468062499997,143.839878791,,,,,,,,,,,,,,,,,,,,,203,kitchen,2,2024-03-18_10h07.58.656,image_similarity_rating,2023.2.3,None,2024-03-18 10h08.25.781471 +0100,
,,,,,,,,,,,,,,,,,,,,,,,,,,,,,,,,,,,,,,,,,,,,,,,,,,,,143.83997379099998,143.84468062499997,143.84468062499997,144.739937333,space,0.8949920830000337,None,,,,,,,,,,,,,,203,kitchen,2,2024-03-18_10h07.58.656,image_similarity_rating,2023.2.3,None,2024-03-18 10h08.25.781471 +0100,
,106,135,183,183,stimuli/own/kitchen/106_kit.jpg,stimuli/own/kitchen/135_kit.jpg,,,,,,,,,0,0,0,182,144.79084508299997,,,,,,,,,,,145.077541208,145.25740424999998,145.25740424999998,145.25740424999998,145.25740424999998,145.25740424999998,145.25740424999998,145.25740424999998,145.25740424999998,145.25740424999998,160.374944041,7,-7,1,3.0,15.036780416,2.0,4.773421625000026,144.788743833,144.79084508299997,145.25740424999998,145.077525166,,,,,,,,144.774580625,144.788446291,None,,,,,,,,,,,203,kitchen,2,2024-03-18_10h07.58.656,image_similarity_rating,2023.2.3,None,2024-03-18 10h08.25.781471 +0100,
,101,104,3,3,stimuli/own/kitchen/101_kit.jpg,stimuli/own/kitchen/104_kit.jpg,,,,,,,,,0,1,1,2,160.38379029099997,,,,,,,,,,,160.67307391599996,160.838233458,160.838233458,160.838233458,160.838233458,160.838233458,160.838233458,160.838233458,160.838233458,160.838233458,173.854502958,-7,7,1,3.0,9.660367791999988,4.0,12.943315959000017,160.38183720799998,160.38379029099997,160.838233458,160.67305866599997,,,,,,,,160.375511291,160.381787583,None,,,,,,,,,,,203,kitchen,2,2024-03-18_10h07.58.656,image_similarity_rating,2023.2.3,None,2024-03-18 10h08.25.781471 +0100,
,103,124,84,84,stimuli/own/kitchen/103_kit.jpg,stimuli/own/kitchen/124_kit.jpg,,,,,,,,,0,2,2,83,173.860525166,,,,,,,,,,,174.156500708,174.32412899999997,174.32412899999997,174.32412899999997,174.32412899999997,174.32412899999997,174.32412899999997,174.32412899999997,174.32412899999997,174.32412899999997,181.063553083,-7,7,1,3.0,5.990170167000031,2.0,6.707355000000007,173.858591541,173.860525166,174.32412899999997,174.156483583,,,,,,,,173.854727583,173.85853991599998,None,,,,,,,,,,,203,kitchen,2,2024-03-18_10h07.58.656,image_similarity_rating,2023.2.3,None,2024-03-18 10h08.25.781471 +0100,
,116,123,326,326,stimuli/own/kitchen/116_kit.jpg,stimuli/own/kitchen/123_kit.jpg,,,,,,,,,0,3,3,325,181.0714175,,,,,,,,,,,181.35627429099998,181.521439541,181.521439541,181.521439541,181.521439541,181.521439541,181.521439541,181.521439541,181.521439541,181.521439541,187.12085083300002,7,-7,1,3.0,5.533316667000008,2.0,2.2560987499999783,181.06728375,181.0714175,181.521439541,181.35626120799998,,,,,,,,181.06377654099998,181.067235541,None,,,,,,,,,,,203,kitchen,2,2024-03-18_10h07.58.656,image_similarity_rating,2023.2.3,None,2024-03-18 10h08.25.781471 +0100,
,124,132,482,482,stimuli/own/kitchen/124_kit.jpg,stimuli/own/kitchen/132_kit.jpg,,,,,,,,,0,4,4,481,187.126925541,,,,,,,,,,,187.410365625,187.57788345799997,187.57788345799997,187.57788345799997,187.57788345799997,187.57788345799997,187.57788345799997,187.57788345799997,187.57788345799997,187.57788345799997,194.191232083,-7,7,1,4.0,6.6090188340000395,5.0,2.85835095799996,187.124826666,187.126925541,187.57788345799997,187.410352333,,,,,,,,187.121082958,187.12477574999997,None,,,,,,,,,,,203,kitchen,2,2024-03-18_10h07.58.656,image_similarity_rating,2023.2.3,None,2024-03-18 10h08.25.781471 +0100,
,101,127,22,22,stimuli/own/kitchen/101_kit.jpg,stimuli/own/kitchen/127_kit.jpg,,,,,,,,,0,5,5,21,194.20503054099999,,,,,,,,,,,194.4896405,194.656363958,194.656363958,194.656363958,194.656363958,194.656363958,194.656363958,194.656363958,194.656363958,194.656363958,199.63264475,7,-7,1,3.0,4.910959417000015,3.0,3.8549995829999943,194.19531370800001,194.20503054099999,194.656363958,194.489626333,,,,,,,,194.191475125,194.195261458,None,,,,,,,,,,,203,kitchen,2,2024-03-18_10h07.58.656,image_similarity_rating,2023.2.3,None,2024-03-18 10h08.25.781471 +0100,
,101,109,6,6,stimuli/own/kitchen/101_kit.jpg,stimuli/own/kitchen/109_kit.jpg,,,,,,,,,0,6,6,5,199.65520804099998,,,,,,,,,,,199.93917825,200.10932220799998,200.10932220799998,200.10932220799998,200.10932220799998,200.10932220799998,200.10932220799998,200.10932220799998,200.10932220799998,200.10932220799998,203.299047208,7,-7,1,3.0,2.45232575,3.0,3.041624458000001,199.63659004099998,199.65520804099998,,199.939152375,,,,,,,,199.632870958,199.636539416,None,,,,,,,,,,,203,kitchen,2,2024-03-18_10h07.58.656,image_similarity_rating,2023.2.3,None,2024-03-18 10h08.25.781471 +0100,
,112,121,252,252,stimuli/own/kitchen/112_kit.jpg,stimuli/own/kitchen/121_kit.jpg,,,,,,,,,0,7,7,251,203.30474904099998,,,,,,,,,,,203.590324625,203.757748208,203.757748208,203.757748208,203.757748208,203.757748208,203.757748208,203.757748208,203.757748208,203.757748208,207.27798291599998,7,-7,1,3.0,3.4682062910000013,3.0,2.6961988749999932,203.30296475,203.30474904099998,203.757748208,203.5903035,,,,,,,,203.299273583,203.30291412499997,None,,,,,,,,,,,203,kitchen,2,2024-03-18_10h07.58.656,image_similarity_rating,2023.2.3,None,2024-03-18 10h08.25.781471 +0100,
,109,136,212,212,stimuli/own/kitchen/109_kit.jpg,stimuli/own/kitchen/136_kit.jpg,,,,,,,,,0,8,8,211,207.288215541,,,,,,,,,,,207.572830416,207.74273125000002,207.74273125000002,207.74273125000002,207.74273125000002,207.74273125000002,207.74273125000002,207.74273125000002,207.74273125000002,207.74273125000002,209.91154845799997,7,-7,1,3.0,1.1308855830000084,4.0,2.09579845799999,207.28170241599997,207.288215541,207.74273125000002,207.572801416,,,,,,,,207.27820870799997,207.281654625,None,,,,,,,,,,,203,kitchen,2,2024-03-18_10h07.58.656,image_similarity_rating,2023.2.3,None,2024-03-18 10h08.25.781471 +0100,
,116,134,335,335,stimuli/own/kitchen/116_kit.jpg,stimuli/own/kitchen/134_kit.jpg,,,,,,,,,0,9,9,334,209.921555083,,,,,,,,,,,210.20625220799997,210.376877541,210.376877541,210.376877541,210.376877541,210.376877541,210.376877541,210.376877541,210.376877541,210.376877541,217.053588541,-7,7,1,4.0,6.713239625000028,2.0,3.592470750000018,209.91526929100002,209.921555083,210.376877541,210.206235666,,,,,,,,209.91177162499997,209.915219375,None,,,,,,,,,,,203,kitchen,2,2024-03-18_10h07.58.656,image_similarity_rating,2023.2.3,None,2024-03-18 10h08.25.781471 +0100,
,117,124,349,349,stimuli/own/kitchen/117_kit.jpg,stimuli/own/kitchen/124_kit.jpg,,,,,,,,,0,10,10,348,217.05951983299997,,,,,,,,,,,217.34374708299998,217.512831333,217.512831333,217.512831333,217.512831333,217.512831333,217.512831333,217.512831333,217.512831333,217.512831333,220.353438041,-7,7,1,3.0,2.241082915999982,2.0,2.7521143749999624,217.05759891600002,217.05951983299997,217.512831333,217.34373195799998,,,,,,,,217.05382670799997,217.057548333,None,,,,,,,,,,,203,kitchen,2,2024-03-18_10h07.58.656,image_similarity_rating,2023.2.3,None,2024-03-18 10h08.25.781471 +0100,
,102,131,58,58,stimuli/own/kitchen/102_kit.jpg,stimuli/own/kitchen/131_kit.jpg,,,,,,,,,0,11,11,57,220.35915712499997,,,,,,,,,,,220.643407041,220.80859837499997,220.80859837499997,220.80859837499997,220.80859837499997,220.80859837499997,220.80859837499997,220.80859837499997,220.80859837499997,220.80859837499997,226.95801629099998,7,-7,1,1.0,6.004983541999991,2.0,3.852161459000058,220.357203416,220.35915712499997,220.80859837499997,220.643394291,,,,,,,,220.353670958,220.35715479099997,None,,,,,,,,,,,203,kitchen,2,2024-03-18_10h07.58.656,image_similarity_rating,2023.2.3,None,2024-03-18 10h08.25.781471 +0100,
,116,120,323,323,stimuli/own/kitchen/116_kit.jpg,stimuli/own/kitchen/120_kit.jpg,,,,,,,,,0,12,12,322,226.97154425000002,,,,,,,,,,,227.25616770799996,227.42723845799998,227.42723845799998,227.42723845799998,227.42723845799998,227.42723845799998,227.42723845799998,227.42723845799998,227.42723845799998,227.42723845799998,230.84918112500003,-7,7,1,3.0,3.4225640419999763,2.0,2.019683165999936,226.96199174999998,226.97154425000002,227.42723845799998,227.256149708,,,,,,,,226.95826070799995,226.96194133299997,None,,,,,,,,,,,203,kitchen,2,2024-03-18_10h07.58.656,image_similarity_rating,2023.2.3,None,2024-03-18 10h08.25.781471 +0100,
,106,127,177,177,stimuli/own/kitchen/106_kit.jpg,stimuli/own/kitchen/127_kit.jpg,,,,,,,,,0,13,13,176,230.854728083,,,,,,,,,,,231.139331958,231.30547733299994,231.30547733299994,231.30547733299994,231.30547733299994,231.30547733299994,231.30547733299994,231.30547733299994,231.30547733299994,231.30547733299994,234.63755391599994,7,-7,1,2.0,2.5439195840000366,2.0,3.3253902499999413,230.85287879100002,230.854728083,231.30547733299994,231.13931666599996,,,,,,,,230.84940254099996,230.85283091599996,None,,,,,,,,,,,203,kitchen,2,2024-03-18_10h07.58.656,image_similarity_rating,2023.2.3,None,2024-03-18 10h08.25.781471 +0100,
,116,130,332,332,stimuli/own/kitchen/116_kit.jpg,stimuli/own/kitchen/130_kit.jpg,,,,,,,,,0,14,14,331,234.64345333299997,,,,,,,,,,,234.92708433299998,235.092117416,235.092117416,235.092117416,235.092117416,235.092117416,235.092117416,235.092117416,235.092117416,235.092117416,240.853714625,-7,7,1,2.0,5.5990417080000725,3.0,4.104912833000071,234.64152425000003,234.64345333299997,235.092117416,234.92707183299996,,,,,,,,234.63777566599998,234.64147075,None,,,,,,,,,,,203,kitchen,2,2024-03-18_10h07.58.656,image_similarity_rating,2023.2.3,None,2024-03-18 10h08.25.781471 +0100,
,119,132,397,397,stimuli/own/kitchen/119_kit.jpg,stimuli/own/kitchen/132_kit.jpg,,,,,,,,,0,15,15,396,240.85947425,,,,,,,,,,,241.14351441599996,241.31169908299995,241.31169908299995,241.31169908299995,241.31169908299995,241.31169908299995,241.31169908299995,241.31169908299995,241.31169908299995,241.31169908299995,251.10350320799995,7,-7,1,2.0,9.566919000000098,3.0,4.99919029199998,240.85749875000005,240.85947425,241.31169908299995,241.14349970799998,,,,,,,,240.85396091599995,240.85745079099996,None,,,,,,,,,,,203,kitchen,2,2024-03-18_10h07.58.656,image_similarity_rating,2023.2.3,None,2024-03-18 10h08.25.781471 +0100,
,123,137,471,471,stimuli/own/kitchen/123_kit.jpg,stimuli/own/kitchen/137_kit.jpg,,,,,,,,,0,16,16,470,251.10906783299998,,,,,,,,,,,251.39310562500003,251.55783516599996,251.55783516599996,251.55783516599996,251.55783516599996,251.55783516599996,251.55783516599996,251.55783516599996,251.55783516599996,251.55783516599996,262.436641791,7,-7,1,3.0,9.838576582999963,3.0,10.818198250000023,251.107302166,251.10906783299998,251.55783516599996,251.393095416,,,,,,,,251.10375408299996,251.10725358300004,None,,,,,,,,,,,203,kitchen,2,2024-03-18_10h07.58.656,image_similarity_rating,2023.2.3,None,2024-03-18 10h08.25.781471 +0100,
,117,135,358,358,stimuli/own/kitchen/117_kit.jpg,stimuli/own/kitchen/135_kit.jpg,,,,,,,,,0,17,17,357,262.442396458,,,,,,,,,,,262.72696741600004,262.898385666,262.898385666,262.898385666,262.898385666,262.898385666,262.898385666,262.898385666,262.898385666,262.898385666,269.82368204100004,-7,7,1,2.0,6.988368457999968,3.0,5.170557375000044,262.440452625,262.442396458,262.898385666,262.726952791,,,,,,,,262.436891666,262.44040387499996,None,,,,,,,,,,,203,kitchen,2,2024-03-18_10h07.58.656,image_similarity_rating,2023.2.3,None,2024-03-18 10h08.25.781471 +0100,
,104,135,124,124,stimuli/own/kitchen/104_kit.jpg,stimuli/own/kitchen/135_kit.jpg,,,,,,,,,0,18,18,123,269.829194041,,,,,,,,,,,270.12283825000003,270.39003566599996,270.39003566599996,270.39003566599996,270.39003566599996,270.39003566599996,270.39003566599996,270.39003566599996,270.39003566599996,270.39003566599996,272.17438124999995,7,-7,1,2.0,1.1575252079999245,2.0,1.8380580830000781,269.827433375,269.829194041,270.39003566599996,270.12282362499997,,,,,,,,269.823916625,269.827385,None,,,,,,,,,,,203,kitchen,2,2024-03-18_10h07.58.656,image_similarity_rating,2023.2.3,None,2024-03-18 10h08.25.781471 +0100,
,103,134,92,92,stimuli/own/kitchen/103_kit.jpg,stimuli/own/kitchen/134_kit.jpg,,,,,,,,,0,19,19,91,272.179847583,,,,,,,,,,,272.47229675,272.637412083,272.637412083,272.637412083,272.637412083,272.637412083,272.637412083,272.637412083,272.637412083,272.637412083,276.88411975,-7,7,1,3.0,4.187007624999978,5.0,2.890135917000066,272.17807787500004,272.179847583,272.637412083,272.472272958,,,,,,,,272.174605708,272.17802975,None,,,,,,,,,,,203,kitchen,2,2024-03-18_10h07.58.656,image_similarity_rating,2023.2.3,None,2024-03-18 10h08.25.781471 +0100,
,111,124,229,229,stimuli/own/kitchen/111_kit.jpg,stimuli/own/kitchen/124_kit.jpg,,,,,,,,,0,20,20,228,276.889750625,,,,,,,,,,,277.17693908300004,277.34367233300003,277.34367233300003,277.34367233300003,277.34367233300003,277.34367233300003,277.34367233300003,277.34367233300003,277.34367233300003,277.34367233300003,281.498969583,7,-7,1,3.0,4.039399834000051,4.0,3.4170550420000154,276.887907291,276.889750625,277.34367233300003,277.176924833,,,,,,,,276.884343,276.887859,None,,,,,,,,,,,203,kitchen,2,2024-03-18_10h07.58.656,image_similarity_rating,2023.2.3,None,2024-03-18 10h08.25.781471 +0100,
,119,139,403,403,stimuli/own/kitchen/119_kit.jpg,stimuli/own/kitchen/139_kit.jpg,,,,,,,,,0,21,21,402,281.50449358299994,,,,,,,,,,,281.789229208,281.960934625,281.960934625,281.960934625,281.960934625,281.960934625,281.960934625,281.960934625,281.960934625,281.960934625,285.99891466599996,7,-7,1,3.0,2.8965793749999875,4.0,3.9010701250000466,281.50267179099995,281.50449358299994,281.960934625,281.789212708,,,,,,,,281.49919174999997,281.502623541,None,,,,,,,,,,,203,kitchen,2,2024-03-18_10h07.58.656,image_similarity_rating,2023.2.3,None,2024-03-18 10h08.25.781471 +0100,
,105,114,136,136,stimuli/own/kitchen/105_kit.jpg,stimuli/own/kitchen/114_kit.jpg,,,,,,,,,0,22,22,135,286.004404458,,,,,,,,,,,286.28921491600005,286.454384458,286.454384458,286.454384458,286.454384458,286.454384458,286.454384458,286.454384458,286.454384458,286.454384458,289.55418033300003,7,-7,1,2.0,3.0950622499999554,4.0,1.7562889590000168,286.00260195799996,286.004404458,286.454384458,286.289200333,,,,,,,,285.99913762499995,286.00255491599995,None,,,,,,,,,,,203,kitchen,2,2024-03-18_10h07.58.656,image_similarity_rating,2023.2.3,None,2024-03-18 10h08.25.781471 +0100,
,138,139,590,590,stimuli/own/kitchen/138_kit.jpg,stimuli/own/kitchen/139_kit.jpg,,,,,,,,,0,23,23,589,289.560048625,,,,,,,,,,,289.842868333,290.00757108299996,290.00757108299996,290.00757108299996,290.00757108299996,290.00757108299996,290.00757108299996,290.00757108299996,290.00757108299996,290.00757108299996,295.279526083,7,-7,1,2.0,5.186111624999967,4.0,4.3064946669999244,289.557953875,289.560048625,290.00757108299996,289.842854791,,,,,,,,289.5544015,289.55790575,None,,,,,,,,,,,203,kitchen,2,2024-03-18_10h07.58.656,image_similarity_rating,2023.2.3,None,2024-03-18 10h08.25.781471 +0100,
,127,137,525,525,stimuli/own/kitchen/127_kit.jpg,stimuli/own/kitchen/137_kit.jpg,,,,,,,,,0,24,24,524,295.28788279099996,,,,,,,,,,,295.573287083,295.74098383300003,295.74098383300003,295.74098383300003,295.74098383300003,295.74098383300003,295.74098383300003,295.74098383300003,295.74098383300003,295.74098383300003,299.92101091599994,7,-7,1,1.0,4.0420957080000335,1.0,3.3347549590000654,295.28326599999997,295.28788279099996,295.74098383300003,295.57327045799997,,,,,,,,295.27975891600005,295.28321816600004,None,,,,,,,,,,,203,kitchen,2,2024-03-18_10h07.58.656,image_similarity_rating,2023.2.3,None,2024-03-18 10h08.25.781471 +0100,
,109,117,195,195,stimuli/own/kitchen/109_kit.jpg,stimuli/own/kitchen/117_kit.jpg,,,,,,,,,0,25,25,194,299.926828458,,,,,,,,,,,300.20983662500004,300.375582458,300.375582458,300.375582458,300.375582458,300.375582458,300.375582458,300.375582458,300.375582458,300.375582458,303.71192741600004,-7,7,1,1.0,3.274864125000022,2.0,2.3601152910000565,299.924759541,299.926828458,300.375582458,300.209824333,,,,,,,,299.921233375,299.92471125000003,None,,,,,,,,,,,203,kitchen,2,2024-03-18_10h07.58.656,image_similarity_rating,2023.2.3,None,2024-03-18 10h08.25.781471 +0100,
,101,140,33,33,stimuli/own/kitchen/101_kit.jpg,stimuli/own/kitchen/140_kit.jpg,,,,,,,,,0,26,26,32,303.721095916,,,,,,,,,,,304.00583883300004,304.17321487500004,304.17321487500004,304.17321487500004,304.17321487500004,304.17321487500004,304.17321487500004,304.17321487500004,304.17321487500004,304.17321487500004,312.40805204099996,7,-7,1,2.0,8.167014582999968,2.0,4.856478374999938,303.71571858299995,303.721095916,304.17321487500004,304.005821541,,,,,,,,303.71215125,303.71567075,None,,,,,,,,,,,203,kitchen,2,2024-03-18_10h07.58.656,image_similarity_rating,2023.2.3,None,2024-03-18 10h08.25.781471 +0100,
,116,137,338,338,stimuli/own/kitchen/116_kit.jpg,stimuli/own/kitchen/137_kit.jpg,,,,,,,,,0,27,27,337,312.4139935,,,,,,,,,,,312.70564295799994,312.869768041,312.869768041,312.869768041,312.869768041,312.869768041,312.869768041,312.869768041,312.869768041,312.869768041,315.907261375,7,-7,1,2.0,1.771890084000006,1.0,2.9166637920000085,312.412043125,312.4139935,312.869768041,312.70562920799995,,,,,,,,312.408287916,312.411993666,None,,,,,,,,,,,203,kitchen,2,2024-03-18_10h07.58.656,image_similarity_rating,2023.2.3,None,2024-03-18 10h08.25.781471 +0100,
,102,135,61,61,stimuli/own/kitchen/102_kit.jpg,stimuli/own/kitchen/135_kit.jpg,,,,,,,,,0,28,28,60,315.912912125,,,,,,,,,,,316.206253375,316.37076529099994,316.37076529099994,316.37076529099994,316.37076529099994,316.37076529099994,316.37076529099994,316.37076529099994,316.37076529099994,316.37076529099994,322.74015479099995,7,-7,1,2.0,6.402871792000042,3.0,5.771172042000103,315.91111529100004,315.912912125,316.37076529099994,316.206235166,,,,,,,,315.90749354099995,315.91106599999995,None,,,,,,,,,,,203,kitchen,2,2024-03-18_10h07.58.656,image_similarity_rating,2023.2.3,None,2024-03-18 10h08.25.781471 +0100,
,111,130,234,234,stimuli/own/kitchen/111_kit.jpg,stimuli/own/kitchen/130_kit.jpg,,,,,,,,,0,29,29,233,322.74588087499995,,,,,,,,,,,323.03967833300004,323.20377620799997,323.20377620799997,323.20377620799997,323.20377620799997,323.20377620799997,323.20377620799997,323.20377620799997,323.20377620799997,323.20377620799997,328.93196770799995,-7,7,1,2.0,5.724230917,3.0,5.000913332999971,322.74396020800003,322.74588087499995,323.20377620799997,323.039665125,,,,,,,,322.74037749999997,322.74391162499995,None,,,,,,,,,,,203,kitchen,2,2024-03-18_10h07.58.656,image_similarity_rating,2023.2.3,None,2024-03-18 10h08.25.781471 +0100,
,122,124,444,444,stimuli/own/kitchen/122_kit.jpg,stimuli/own/kitchen/124_kit.jpg,,,,,,,,,0,30,30,443,328.954572166,,,,,,,,,,,329.23853470800003,329.40351566600003,329.40351566600003,329.40351566600003,329.40351566600003,329.40351566600003,329.40351566600003,329.40351566600003,329.40351566600003,329.40351566600003,332.62492033300003,-7,7,1,2.0,1.9529364580000674,2.0,3.0888868749999574,328.93579495800003,328.954572166,,329.238508458,,,,,,,,328.932190791,328.935746458,None,,,,,,,,,,,203,kitchen,2,2024-03-18_10h07.58.656,image_similarity_rating,2023.2.3,None,2024-03-18 10h08.25.781471 +0100,
,101,111,7,7,stimuli/own/kitchen/101_kit.jpg,stimuli/own/kitchen/111_kit.jpg,,,,,,,,,0,31,31,6,332.637687333,,,,,,,,,,,332.922267083,333.092098666,333.092098666,333.092098666,333.092098666,333.092098666,333.092098666,333.092098666,333.092098666,333.092098666,335.58198320799994,7,-7,1,2.0,2.4903797079999777,2.0,1.2541100000000824,332.629070375,332.637687333,333.092098666,332.92224541599995,,,,,,,,332.62516629099997,332.62901741599995,None,,,,,,,,,,,203,kitchen,2,2024-03-18_10h07.58.656,image_similarity_rating,2023.2.3,None,2024-03-18 10h08.25.781471 +0100,
,106,126,176,176,stimuli/own/kitchen/106_kit.jpg,stimuli/own/kitchen/126_kit.jpg,,,,,,,,,0,32,32,175,335.58746108299994,,,,,,,,,,,335.872454,336.03782970799995,336.03782970799995,336.03782970799995,336.03782970799995,336.03782970799995,336.03782970799995,336.03782970799995,336.03782970799995,336.03782970799995,338.99008799999996,7,-7,1,2.0,2.963710457999923,3.0,2.3164630839999063,335.58568666599996,335.58746108299994,336.03782970799995,335.872439541,,,,,,,,335.582204375,335.5856385,None,,,,,,,,,,,203,kitchen,2,2024-03-18_10h07.58.656,image_similarity_rating,2023.2.3,None,2024-03-18 10h08.25.781471 +0100,
,104,131,121,612,stimuli/own/kitchen/104_kit.jpg,stimuli/own/kitchen/131_kit.jpg,,,,,,,,,0,33,33,611,338.995704375,,,,,,,,,,,339.28900237499994,339.46044983300004,339.46044983300004,339.46044983300004,339.46044983300004,339.46044983300004,339.46044983300004,339.46044983300004,339.46044983300004,339.46044983300004,344.044559083,7,-7,1,1.0,3.5940577080000367,4.0,4.559992374999979,338.993783166,338.995704375,339.46044983300004,339.288985458,,,,,,,,338.99030887500004,338.993735041,None,,,,,,,,,,,203,kitchen,2,2024-03-18_10h07.58.656,image_similarity_rating,2023.2.3,None,2024-03-18 10h08.25.781471 +0100,
,101,121,16,16,stimuli/own/kitchen/101_kit.jpg,stimuli/own/kitchen/121_kit.jpg,,,,,,,,,0,34,34,15,344.05449837500004,,,,,,,,,,,344.338942291,344.50689308299997,344.50689308299997,344.50689308299997,344.50689308299997,344.50689308299997,344.50689308299997,344.50689308299997,344.50689308299997,344.50689308299997,358.865558666,7,-7,1,3.0,14.306048417000056,1.0,5.156634292000035,344.048275833,344.05449837500004,344.50689308299997,344.338921666,,,,,,,,344.044789333,344.048228208,None,,,,,,,,,,,203,kitchen,2,2024-03-18_10h07.58.656,image_similarity_rating,2023.2.3,None,2024-03-18 10h08.25.781471 +0100,
,124,141,490,490,stimuli/own/kitchen/124_kit.jpg,stimuli/own/kitchen/141_kit.jpg,,,,,,,,,0,35,35,489,358.887761,,,,,,,,,,,359.171608833,359.33746275000004,359.33746275000004,359.33746275000004,359.33746275000004,359.33746275000004,359.33746275000004,359.33746275000004,359.33746275000004,359.33746275000004,365.67772091599994,7,-7,1,3.0,6.373900124999977,2.0,4.976025334000042,358.86929166600004,358.887761,,359.171591041,,,,,,,,358.86578375000005,358.86924366600005,None,,,,,,,,,,,203,kitchen,2,2024-03-18_10h07.58.656,image_similarity_rating,2023.2.3,None,2024-03-18 10h08.25.781471 +0100,
,120,126,411,411,stimuli/own/kitchen/120_kit.jpg,stimuli/own/kitchen/126_kit.jpg,,,,,,,,,0,36,36,410,365.68765745800005,,,,,,,,,,,365.97210983300005,366.13832775,366.13832775,366.13832775,366.13832775,366.13832775,366.13832775,366.13832775,366.13832775,366.13832775,370.28610891600005,7,-7,1,2.0,4.1192894170000045,1.0,2.854975583000055,365.681426208,365.68765745800005,366.13832775,365.972093541,,,,,,,,365.67794254099994,365.68137799999994,None,,,,,,,,,,,203,kitchen,2,2024-03-18_10h07.58.656,image_similarity_rating,2023.2.3,None,2024-03-18 10h08.25.781471 +0100,
,116,129,331,331,stimuli/own/kitchen/116_kit.jpg,stimuli/own/kitchen/129_kit.jpg,,,,,,,,,0,37,37,330,370.29162887499996,,,,,,,,,,,370.576462875,370.74715229099996,370.74715229099996,370.74715229099996,370.74715229099996,370.74715229099996,370.74715229099996,370.74715229099996,370.74715229099996,370.74715229099996,375.190289833,-7,7,1,1.0,3.442864542000052,1.0,4.350159125000005,370.28986208299995,370.29162887499996,370.74715229099996,370.57644795799996,,,,,,,,370.28633320800003,370.289812875,None,,,,,,,,,,,203,kitchen,2,2024-03-18_10h07.58.656,image_similarity_rating,2023.2.3,None,2024-03-18 10h08.25.781471 +0100,
,111,125,230,230,stimuli/own/kitchen/111_kit.jpg,stimuli/own/kitchen/125_kit.jpg,,,,,,,,,0,38,38,229,375.1958275,,,,,,,,,,,375.489554458,375.654469916,375.654469916,375.654469916,375.654469916,375.654469916,375.654469916,375.654469916,375.654469916,375.654469916,379.33325862500004,7,-7,1,2.0,3.647207499999922,3.0,2.9889732090000507,375.19408412499996,375.1958275,375.654469916,375.489540791,,,,,,,,375.19051333299996,375.19403595800003,None,,,,,,,,,,,203,kitchen,2,2024-03-18_10h07.58.656,image_similarity_rating,2023.2.3,None,2024-03-18 10h08.25.781471 +0100,
,106,123,173,173,stimuli/own/kitchen/106_kit.jpg,stimuli/own/kitchen/123_kit.jpg,,,,,,,,,0,39,39,172,379.33887862499995,,,,,,,,,,,379.62201379100003,379.78665458300003,379.78665458300003,379.78665458300003,379.78665458300003,379.78665458300003,379.78665458300003,379.78665458300003,379.78665458300003,379.78665458300003,382.2195695,-7,7,1,1.0,2.3984612499999685,1.0,1.428666958000008,379.33702283299993,379.33887862499995,379.78665458300003,379.621996208,,,,,,,,379.33351024999996,379.33697520799996,None,,,,,,,,,,,203,kitchen,2,2024-03-18_10h07.58.656,image_similarity_rating,2023.2.3,None,2024-03-18 10h08.25.781471 +0100,
,122,127,447,447,stimuli/own/kitchen/122_kit.jpg,stimuli/own/kitchen/127_kit.jpg,,,,,,,,,0,40,40,446,382.22544179100004,,,,,,,,,,,382.509371125,382.67424724999995,382.67424724999995,382.67424724999995,382.67424724999995,382.67424724999995,382.67424724999995,382.67424724999995,382.67424724999995,382.67424724999995,390.27374675000004,7,-7,1,3.0,6.854697291999969,2.0,7.6226219999999785,382.223355916,382.22544179100004,382.67424724999995,382.509358791,,,,,,,,382.2198245,382.22330770799994,None,,,,,,,,,,,203,kitchen,2,2024-03-18_10h07.58.656,image_similarity_rating,2023.2.3,None,2024-03-18 10h08.25.781471 +0100,
,105,137,156,156,stimuli/own/kitchen/105_kit.jpg,stimuli/own/kitchen/137_kit.jpg,,,,,,,,,0,41,41,155,390.28736029099997,,,,,,,,,,,390.572063958,390.7426635,390.7426635,390.7426635,390.7426635,390.7426635,390.7426635,390.7426635,390.7426635,390.7426635,396.261918458,7,-7,1,3.0,5.531293541999958,2.0,4.758766125000079,390.277660541,390.28736029099997,390.7426635,390.57204670799996,,,,,,,,390.27397545799994,390.277610625,None,,,,,,,,,,,203,kitchen,2,2024-03-18_10h07.58.656,image_similarity_rating,2023.2.3,None,2024-03-18 10h08.25.781471 +0100,
,101,135,28,28,stimuli/own/kitchen/101_kit.jpg,stimuli/own/kitchen/135_kit.jpg,,,,,,,,,0,42,42,27,396.27070129099997,,,,,,,,,,,396.556189416,396.71935875,396.71935875,396.71935875,396.71935875,396.71935875,396.71935875,396.71935875,396.71935875,396.71935875,401.639767208,7,-7,1,3.0,4.100341708999963,3.0,4.796371125000064,396.265639583,396.27070129099997,396.71935875,396.556176416,,,,,,,,396.26214012500003,396.26559141599995,None,,,,,,,,,,,203,kitchen,2,2024-03-18_10h07.58.656,image_similarity_rating,2023.2.3,None,2024-03-18 10h08.25.781471 +0100,
,113,138,292,292,stimuli/own/kitchen/113_kit.jpg,stimuli/own/kitchen/138_kit.jpg,,,,,,,,,0,43,43,291,401.645364166,,,,,,,,,,,401.938641291,402.1052885,402.1052885,402.1052885,402.1052885,402.1052885,402.1052885,402.1052885,402.1052885,402.1052885,405.532224416,7,-7,1,1.0,3.4634408749999466,2.0,2.44133854100005,401.64341995800004,401.645364166,402.1052885,401.93862629100005,,,,,,,,401.63998933299996,401.643372416,None,,,,,,,,,,,203,kitchen,2,2024-03-18_10h07.58.656,image_similarity_rating,2023.2.3,None,2024-03-18 10h08.25.781471 +0100,
,120,130,414,414,stimuli/own/kitchen/120_kit.jpg,stimuli/own/kitchen/130_kit.jpg,,,,,,,,,0,44,44,413,405.53845629100005,,,,,,,,,,,405.821670458,405.98485254099995,405.98485254099995,405.98485254099995,405.98485254099995,405.98485254099995,405.98485254099995,405.98485254099995,405.98485254099995,405.98485254099995,419.04404070799995,7,-7,1,3.0,7.679705333000015,2.0,12.921421791000057,405.53600995799997,405.53845629100005,405.98485254099995,405.82165712499994,,,,,,,,405.53245020799994,405.535962041,None,,,,,,,,,,,203,kitchen,2,2024-03-18_10h07.58.656,image_similarity_rating,2023.2.3,None,2024-03-18 10h08.25.781471 +0100,
,116,141,342,342,stimuli/own/kitchen/116_kit.jpg,stimuli/own/kitchen/141_kit.jpg,,,,,,,,,0,45,45,341,419.05411416600003,,,,,,,,,,,419.33851995799995,419.50605416599996,419.50605416599996,419.50605416599996,419.50605416599996,419.50605416599996,419.50605416599996,419.50605416599996,419.50605416599996,419.50605416599996,425.020257875,7,-7,1,1.0,5.440800500000023,2.0,2.1432810000000018,419.047854708,419.05411416600003,419.50605416599996,419.33850312500005,,,,,,,,419.04426491600003,419.04780654099994,None,,,,,,,,,,,203,kitchen,2,2024-03-18_10h07.58.656,image_similarity_rating,2023.2.3,None,2024-03-18 10h08.25.781471 +0100,
,113,141,295,295,stimuli/own/kitchen/113_kit.jpg,stimuli/own/kitchen/141_kit.jpg,,,,,,,,,0,46,46,294,425.02614075,,,,,,,,,,,425.321846,425.48648525000004,425.48648525000004,425.48648525000004,425.48648525000004,425.48648525000004,425.48648525000004,425.48648525000004,425.48648525000004,425.48648525000004,430.544671833,-7,7,1,2.0,3.4173008329998993,1.0,4.86020362499994,425.02404929100004,425.02614075,425.48648525000004,425.32183137500004,,,,,,,,425.020495791,425.024001416,None,,,,,,,,,,,203,kitchen,2,2024-03-18_10h07.58.656,image_similarity_rating,2023.2.3,None,2024-03-18 10h08.25.781471 +0100,
,111,141,244,244,stimuli/own/kitchen/111_kit.jpg,stimuli/own/kitchen/141_kit.jpg,,,,,,,,,0,47,47,243,430.553944166,,,,,,,,,,,430.83911533299994,431.00584054099994,431.00584054099994,431.00584054099994,431.00584054099994,431.00584054099994,431.00584054099994,431.00584054099994,431.00584054099994,431.00584054099994,435.58165208299994,7,-7,1,2.0,4.48771212500003,1.0,2.6651800419999745,430.5483625,430.553944166,431.00584054099994,430.83909991599995,,,,,,,,430.54490608299994,430.54831466599995,None,,,,,,,,,,,203,kitchen,2,2024-03-18_10h07.58.656,image_similarity_rating,2023.2.3,None,2024-03-18 10h08.25.781471 +0100,
,126,139,515,515,stimuli/own/kitchen/126_kit.jpg,stimuli/own/kitchen/139_kit.jpg,,,,,,,,,0,48,48,514,435.60408125,,,,,,,,,,,435.887912791,436.06008812499994,436.06008812499994,436.06008812499994,436.06008812499994,436.06008812499994,436.06008812499994,436.06008812499994,436.06008812499994,436.06008812499994,443.37811341599996,7,-7,1,3.0,7.254442125000082,1.0,6.069595499999991,435.58543041599995,435.60408125,,435.887891291,,,,,,,,435.58187749999996,435.58538233300004,None,,,,,,,,,,,203,kitchen,2,2024-03-18_10h07.58.656,image_similarity_rating,2023.2.3,None,2024-03-18 10h08.25.781471 +0100,
,105,134,153,153,stimuli/own/kitchen/105_kit.jpg,stimuli/own/kitchen/134_kit.jpg,,,,,,,,,0,49,49,152,443.38714595799996,,,,,,,,,,,443.67162441600004,443.83589991599996,443.83589991599996,443.83589991599996,443.83589991599996,443.83589991599996,443.83589991599996,443.83589991599996,443.83589991599996,443.83589991599996,456.44514258299995,7,-7,1,3.0,5.514582374999918,2.0,12.446263040999952,443.38193370799996,443.38714595799996,443.83589991599996,443.67161000000004,,,,,,,,443.378337875,443.3818855,None,,,,,,,,,,,203,kitchen,2,2024-03-18_10h07.58.656,image_similarity_rating,2023.2.3,None,2024-03-18 10h08.25.781471 +0100,
,120,122,407,407,stimuli/own/kitchen/120_kit.jpg,stimuli/own/kitchen/122_kit.jpg,,,,,,,,,0,50,50,406,456.45345470800004,,,,,,,,,,,456.738382833,456.90670508299996,456.90670508299996,456.90670508299996,456.90670508299996,456.90670508299996,456.90670508299996,456.90670508299996,456.90670508299996,456.90670508299996,467.223535166,-7,7,1,3.0,10.13744654200002,4.0,7.219858417000069,456.448963708,456.45345470800004,456.90670508299996,456.73836662499997,,,,,,,,456.44537058299994,456.44891520799996,None,,,,,,,,,,,203,kitchen,2,2024-03-18_10h07.58.656,image_similarity_rating,2023.2.3,None,2024-03-18 10h08.25.781471 +0100,
,120,127,412,412,stimuli/own/kitchen/120_kit.jpg,stimuli/own/kitchen/127_kit.jpg,,,,,,,,,0,51,51,411,467.237063125,,,,,,,,,,,467.522697458,467.68603912500004,467.68603912500004,467.68603912500004,467.68603912500004,467.68603912500004,467.68603912500004,467.68603912500004,467.68603912500004,467.68603912500004,470.390245375,-7,7,1,2.0,2.529907083000012,2.0,1.9301177500000222,467.227433791,467.237063125,467.68603912500004,467.52268320800005,,,,,,,,467.22376041599995,467.22738358299995,None,,,,,,,,,,,203,kitchen,2,2024-03-18_10h07.58.656,image_similarity_rating,2023.2.3,None,2024-03-18 10h08.25.781471 +0100,
,121,122,425,425,stimuli/own/kitchen/121_kit.jpg,stimuli/own/kitchen/122_kit.jpg,,,,,,,,,0,52,52,424,470.39576333300005,,,,,,,,,,,470.68818137499994,470.853820041,470.853820041,470.853820041,470.853820041,470.853820041,470.853820041,470.853820041,470.853820041,470.853820041,479.66951762499997,7,-7,1,1.0,8.700728499999968,2.0,7.180686790999971,470.393996791,470.39576333300005,470.853820041,470.68816654100004,,,,,,,,470.390469666,470.39394895799995,None,,,,,,,,,,,203,kitchen,2,2024-03-18_10h07.58.656,image_similarity_rating,2023.2.3,None,2024-03-18 10h08.25.781471 +0100,
,121,140,441,441,stimuli/own/kitchen/121_kit.jpg,stimuli/own/kitchen/140_kit.jpg,,,,,,,,,0,53,53,440,479.6752905,,,,,,,,,,,479.959357708,480.12281170800003,480.12281170800003,480.12281170800003,480.12281170800003,480.12281170800003,480.12281170800003,480.12281170800003,480.12281170800003,480.12281170800003,484.06049049999996,-7,7,1,2.0,3.9612734999999475,3.0,2.8509133330001077,479.67333,479.6752905,480.12281170800003,479.959344166,,,,,,,,479.66973912500004,479.67328241599995,None,,,,,,,,,,,203,kitchen,2,2024-03-18_10h07.58.656,image_similarity_rating,2023.2.3,None,2024-03-18 10h08.25.781471 +0100,
,121,136,437,437,stimuli/own/kitchen/121_kit.jpg,stimuli/own/kitchen/136_kit.jpg,,,,,,,,,0,54,54,436,484.07025633300003,,,,,,,,,,,484.354981291,484.51999941599996,484.51999941599996,484.51999941599996,484.51999941599996,484.51999941599996,484.51999941599996,484.51999941599996,484.51999941599996,484.51999941599996,487.395517083,-7,7,1,1.0,2.8487082089999376,3.0,1.970689458000038,484.064255791,484.07025633300003,484.51999941599996,484.354965583,,,,,,,,484.060714916,484.06420775,None,,,,,,,,,,,203,kitchen,2,2024-03-18_10h07.58.656,image_similarity_rating,2023.2.3,None,2024-03-18 10h08.25.781471 +0100,
,102,113,42,42,stimuli/own/kitchen/102_kit.jpg,stimuli/own/kitchen/113_kit.jpg,,,,,,,,,0,55,55,41,487.40325079099995,,,,,,,,,,,487.688809875,487.854290458,487.854290458,487.854290458,487.854290458,487.854290458,487.854290458,487.854290458,487.854290458,487.854290458,512.1815643749999,-7,7,1,1.0,21.976861167000038,3.0,24.200995457999966,487.399188583,487.40325079099995,487.854290458,487.68879487500004,,,,,,,,487.395739083,487.399140791,None,,,,,,,,,,,203,kitchen,2,2024-03-18_10h07.58.656,image_similarity_rating,2023.2.3,None,2024-03-18 10h08.25.781471 +0100,
,132,134,560,560,stimuli/own/kitchen/132_kit.jpg,stimuli/own/kitchen/134_kit.jpg,,,,,,,,,0,56,56,559,512.2037440409999,,,,,,,,,,,512.487627708,512.654311041,512.654311041,512.654311041,512.654311041,512.654311041,512.654311041,512.654311041,512.654311041,512.654311041,521.635677791,7,-7,1,3.0,7.600124916000027,2.0,8.230409000000009,512.185261458,512.2037440409999,,512.4876084160001,,,,,,,,512.181789875,512.1852134999999,None,,,,,,,,,,,203,kitchen,2,2024-03-18_10h07.58.656,image_similarity_rating,2023.2.3,None,2024-03-18 10h08.25.781471 +0100,
,116,127,330,330,stimuli/own/kitchen/116_kit.jpg,stimuli/own/kitchen/127_kit.jpg,,,,,,,,,0,57,57,329,521.6415810409999,,,,,,,,,,,521.938288333,522.1055719159999,522.1055719159999,522.1055719159999,522.1055719159999,522.1055719159999,522.1055719159999,522.1055719159999,522.1055719159999,522.1055719159999,525.936008916,-7,7,1,2.0,3.7605575000000044,2.0,2.8289011670000264,521.6394177499999,521.6415810409999,522.1055719159999,521.9382712500001,,,,,,,,521.6359292499999,521.6393688329999,None,,,,,,,,,,,203,kitchen,2,2024-03-18_10h07.58.656,image_similarity_rating,2023.2.3,None,2024-03-18 10h08.25.781471 +0100,
,116,138,339,339,stimuli/own/kitchen/116_kit.jpg,stimuli/own/kitchen/138_kit.jpg,,,,,,,,,0,58,58,338,525.941634583,,,,,,,,,,,526.2252832500001,526.389913083,526.389913083,526.389913083,526.389913083,526.389913083,526.389913083,526.389913083,526.389913083,526.389913083,531.694880125,-7,7,1,2.0,5.267060333999893,3.0,4.415400833000035,525.939712291,525.941634583,526.389913083,526.2252698750001,,,,,,,,525.9362404999999,525.9396651249999,None,,,,,,,,,,,203,kitchen,2,2024-03-18_10h07.58.656,image_similarity_rating,2023.2.3,None,2024-03-18 10h08.25.781471 +0100,
,125,139,502,502,stimuli/own/kitchen/125_kit.jpg,stimuli/own/kitchen/139_kit.jpg,,,,,,,,,0,59,59,501,531.7034200410001,,,,,,,,,,,531.9882775409999,532.153574041,532.153574041,532.153574041,532.153574041,532.153574041,532.153574041,532.153574041,532.153574041,532.153574041,537.948328875,7,-7,1,2.0,5.878740124999922,1.0,4.270840958000008,531.6985548749999,531.7034200410001,532.153574041,531.9882633750001,,,,,,,,531.6951060829999,531.698506083,None,,,,,,,,,,,203,kitchen,2,2024-03-18_10h07.58.656,image_similarity_rating,2023.2.3,None,2024-03-18 10h08.25.781471 +0100,
,102,138,64,64,stimuli/own/kitchen/102_kit.jpg,stimuli/own/kitchen/138_kit.jpg,,,,,,,,,0,60,60,63,537.954592625,,,,,,,,,,,538.2387287500001,538.403614583,538.403614583,538.403614583,538.403614583,538.403614583,538.403614583,538.403614583,538.403614583,538.403614583,546.452647333,-7,7,1,1.0,7.995828833000019,2.0,5.520226582999953,537.952135541,537.954592625,538.403614583,538.238709625,,,,,,,,537.948554416,537.9520855410001,None,,,,,,,,,,,203,kitchen,2,2024-03-18_10h07.58.656,image_similarity_rating,2023.2.3,None,2024-03-18 10h08.25.781471 +0100,
,102,123,51,51,stimuli/own/kitchen/102_kit.jpg,stimuli/own/kitchen/123_kit.jpg,,,,,,,,,0,61,61,50,546.458306583,,,,,,,,,,,546.741880625,546.9071557909999,546.9071557909999,546.9071557909999,546.9071557909999,546.9071557909999,546.9071557909999,546.9071557909999,546.9071557909999,546.9071557909999,549.5823453749999,-7,7,1,1.0,1.1406317910000325,2.0,2.5872531670000853,546.4563605410001,546.458306583,546.9071557909999,546.7418634159999,,,,,,,,546.452869666,546.4563130409999,None,,,,,,,,,,,203,kitchen,2,2024-03-18_10h07.58.656,image_similarity_rating,2023.2.3,None,2024-03-18 10h08.25.781471 +0100,
,119,140,404,404,stimuli/own/kitchen/119_kit.jpg,stimuli/own/kitchen/140_kit.jpg,,,,,,,,,0,62,62,403,549.588002916,,,,,,,,,,,549.8722969999999,550.038504875,550.038504875,550.038504875,550.038504875,550.038504875,550.038504875,550.038504875,550.038504875,550.038504875,555.301972875,7,-7,1,2.0,5.248987875000012,1.0,3.7605557910000016,549.586069916,549.588002916,550.038504875,549.8722820830001,,,,,,,,549.582567208,549.586022708,None,,,,,,,,,,,203,kitchen,2,2024-03-18_10h07.58.656,image_similarity_rating,2023.2.3,None,2024-03-18 10h08.25.781471 +0100,
,134,140,573,573,stimuli/own/kitchen/134_kit.jpg,stimuli/own/kitchen/140_kit.jpg,,,,,,,,,0,63,63,572,555.307858375,,,,,,,,,,,558.654649375,558.828313125,558.828313125,558.828313125,558.828313125,558.828313125,558.828313125,558.828313125,558.828313125,558.828313125,579.1647787080001,7,-7,2,3.0,19.185772499999985,4.0,20.224373082999932,558.358014375,558.3616529159999,558.828313125,558.654633291,,,,,,,,555.3021961249999,558.356608625,space,555.307858375,3.048505209000041,None,,,,,,,,203,kitchen,2,2024-03-18_10h07.58.656,image_similarity_rating,2023.2.3,None,2024-03-18 10h08.25.781471 +0100,
,129,138,537,537,stimuli/own/kitchen/129_kit.jpg,stimuli/own/kitchen/138_kit.jpg,,,,,,,,,0,64,64,536,579.171349125,,,,,,,,,,,579.454542,579.62060425,579.62060425,579.62060425,579.62060425,579.62060425,579.62060425,579.62060425,579.62060425,579.62060425,585.5023455830001,7,-7,2,3.0,4.350540084000045,2.0,5.8317301250000355,579.169054208,579.171349125,579.62060425,579.454528125,,,,,,,,579.165001458,579.169005625,None,,,,,,,,,,,203,kitchen,2,2024-03-18_10h07.58.656,image_similarity_rating,2023.2.3,None,2024-03-18 10h08.25.781471 +0100,
,103,127,87,87,stimuli/own/kitchen/103_kit.jpg,stimuli/own/kitchen/127_kit.jpg,,,,,,,,,0,65,65,86,585.508002583,,,,,,,,,,,585.7934172079999,585.9574508329999,585.9574508329999,585.9574508329999,585.9574508329999,585.9574508329999,585.9574508329999,585.9574508329999,585.9574508329999,585.9574508329999,590.881335041,-7,7,2,1.0,3.4871588329999668,3.0,4.7547012499999255,585.5060751660001,585.508002583,585.9574508329999,585.7934037079999,,,,,,,,585.5025745,585.5060277079999,None,,,,,,,,,,,203,kitchen,2,2024-03-18_10h07.58.656,image_similarity_rating,2023.2.3,None,2024-03-18 10h08.25.781471 +0100,
,112,127,258,258,stimuli/own/kitchen/112_kit.jpg,stimuli/own/kitchen/127_kit.jpg,,,,,,,,,0,66,66,257,590.903126916,,,,,,,,,,,591.187266916,591.3605620000001,591.3605620000001,591.3605620000001,591.3605620000001,591.3605620000001,591.3605620000001,591.3605620000001,591.3605620000001,591.3605620000001,602.306058166,7,-7,2,2.0,9.19462020900005,4.0,10.88075908299993,590.885009583,590.903126916,,591.1872464579999,,,,,,,,590.881556583,590.8849619580001,None,,,,,,,,,,,203,kitchen,2,2024-03-18_10h07.58.656,image_similarity_rating,2023.2.3,None,2024-03-18 10h08.25.781471 +0100,
,101,103,2,2,stimuli/own/kitchen/101_kit.jpg,stimuli/own/kitchen/103_kit.jpg,,,,,,,,,0,67,67,1,602.3197865,,,,,,,,,,,602.604187958,602.7674628330001,602.7674628330001,602.7674628330001,602.7674628330001,602.7674628330001,602.7674628330001,602.7674628330001,602.7674628330001,602.7674628330001,608.091264375,-7,7,2,1.0,5.307791791,4.0,3.1109133749999955,602.310055333,602.3197865,602.7674628330001,602.6041742499999,,,,,,,,602.3062985409999,602.310004125,None,,,,,,,,,,,203,kitchen,2,2024-03-18_10h07.58.656,image_similarity_rating,2023.2.3,None,2024-03-18 10h08.25.781471 +0100,
,130,137,546,546,stimuli/own/kitchen/130_kit.jpg,stimuli/own/kitchen/137_kit.jpg,,,,,,,,,0,68,68,545,608.1030357909999,,,,,,,,,,,608.3876944579999,608.55508575,608.55508575,608.55508575,608.55508575,608.55508575,608.55508575,608.55508575,608.55508575,608.55508575,618.9518143749999,7,-7,2,1.0,6.3328107500000215,3.0,10.160597375000066,608.0949862499999,608.1030357909999,608.55508575,608.3876795829999,,,,,,,,608.091485166,608.094939541,None,,,,,,,,,,,203,kitchen,2,2024-03-18_10h07.58.656,image_similarity_rating,2023.2.3,None,2024-03-18 10h08.25.781471 +0100,
,105,135,154,154,stimuli/own/kitchen/105_kit.jpg,stimuli/own/kitchen/135_kit.jpg,,,,,,,,,0,69,69,153,618.957558625,,,,,,,,,,,619.242068,619.4055537080001,619.4055537080001,619.4055537080001,619.4055537080001,619.4055537080001,619.4055537080001,619.4055537080001,619.4055537080001,619.4055537080001,625.259569,-7,7,2,3.0,4.899764584000081,2.0,5.80680366699994,618.9556313329999,618.957558625,619.4055537080001,619.2420543329999,,,,,,,,618.9520532910001,618.955584,None,,,,,,,,,,,203,kitchen,2,2024-03-18_10h07.58.656,image_similarity_rating,2023.2.3,None,2024-03-18 10h08.25.781471 +0100,
,102,139,65,605,stimuli/own/kitchen/102_kit.jpg,stimuli/own/kitchen/139_kit.jpg,,,,,,,,,0,70,70,604,625.269631291,,,,,,,,,,,625.5543075410001,625.7198457500001,625.7198457500001,625.7198457500001,625.7198457500001,625.7198457500001,625.7198457500001,625.7198457500001,625.7198457500001,625.7198457500001,629.5405042909999,-7,7,2,2.0,3.762975417000007,4.0,2.8789226660001077,625.263277625,625.269631291,625.7198457500001,625.5542943749999,,,,,,,,625.259792458,625.2632303329999,None,,,,,,,,,,,203,kitchen,2,2024-03-18_10h07.58.656,image_similarity_rating,2023.2.3,None,2024-03-18 10h08.25.781471 +0100,
,121,125,428,428,stimuli/own/kitchen/121_kit.jpg,stimuli/own/kitchen/125_kit.jpg,,,,,,,,,0,71,71,427,629.552890875,,,,,,,,,,,629.8375317499999,630.0023000409999,630.0023000409999,630.0023000409999,630.0023000409999,630.0023000409999,630.0023000409999,630.0023000409999,630.0023000409999,630.0023000409999,634.4742074579999,7,-7,2,2.0,4.498561792000032,3.0,3.2787898329999052,629.5442490830001,629.552890875,630.0023000409999,629.837518583,,,,,,,,629.5407265409999,629.5442015000001,None,,,,,,,,,,,203,kitchen,2,2024-03-18_10h07.58.656,image_similarity_rating,2023.2.3,None,2024-03-18 10h08.25.781471 +0100,
,101,116,11,11,stimuli/own/kitchen/101_kit.jpg,stimuli/own/kitchen/116_kit.jpg,,,,,,,,,0,72,72,10,634.486304541,,,,,,,,,,,634.771560791,634.9368985000001,634.9368985000001,634.9368985000001,634.9368985000001,634.9368985000001,634.9368985000001,634.9368985000001,634.9368985000001,634.9368985000001,637.784993,-7,7,2,2.0,1.838265209000042,2.0,2.8122285829999782,634.477890416,634.486304541,634.9368985000001,634.7715463330001,,,,,,,,634.4744276659999,634.4778437909999,None,,,,,,,,,,,203,kitchen,2,2024-03-18_10h07.58.656,image_similarity_rating,2023.2.3,None,2024-03-18 10h08.25.781471 +0100,
,126,127,505,505,stimuli/own/kitchen/126_kit.jpg,stimuli/own/kitchen/127_kit.jpg,,,,,,,,,0,73,73,504,637.790744375,,,,,,,,,,,638.0749571250001,638.2398564580001,638.2398564580001,638.2398564580001,638.2398564580001,638.2398564580001,638.2398564580001,638.2398564580001,638.2398564580001,638.2398564580001,643.077822125,7,-7,2,2.0,4.782656166999914,2.0,3.519447166999953,637.7887309580001,637.790744375,638.2398564580001,638.0749455,,,,,,,,637.785216041,637.788683541,None,,,,,,,,,,,203,kitchen,2,2024-03-18_10h07.58.656,image_similarity_rating,2023.2.3,None,2024-03-18 10h08.25.781471 +0100,
,106,134,182,182,stimuli/own/kitchen/106_kit.jpg,stimuli/own/kitchen/134_kit.jpg,,,,,,,,,0,74,74,181,643.086282125,,,,,,,,,,,643.371641875,643.5364352080001,643.5364352080001,643.5364352080001,643.5364352080001,643.5364352080001,643.5364352080001,643.5364352080001,643.5364352080001,643.5364352080001,646.8308776250001,7,-7,2,1.0,2.352682125000001,3.0,3.032968207999943,643.0815150829999,643.086282125,643.5364352080001,643.3716248329999,,,,,,,,643.0780447909999,643.0814673750001,None,,,,,,,,,,,203,kitchen,2,2024-03-18_10h07.58.656,image_similarity_rating,2023.2.3,None,2024-03-18 10h08.25.781471 +0100,
,136,138,582,582,stimuli/own/kitchen/136_kit.jpg,stimuli/own/kitchen/138_kit.jpg,,,,,,,,,0,75,75,581,646.8530291659999,,,,,,,,,,,647.137039791,647.3037877500001,647.3037877500001,647.3037877500001,647.3037877500001,647.3037877500001,647.3037877500001,647.3037877500001,647.3037877500001,647.3037877500001,658.519064375,-7,7,2,2.0,9.388978458999986,4.0,11.089108582999984,646.8345642909999,646.8530291659999,,647.1370212500001,,,,,,,,646.8311005830001,646.8345171660001,None,,,,,,,,,,,203,kitchen,2,2024-03-18_10h07.58.656,image_similarity_rating,2023.2.3,None,2024-03-18 10h08.25.781471 +0100,
,123,124,460,460,stimuli/own/kitchen/123_kit.jpg,stimuli/own/kitchen/124_kit.jpg,,,,,,,,,0,76,76,459,658.5249114579999,,,,,,,,,,,658.8077438329999,658.971334333,658.971334333,658.971334333,658.971334333,658.971334333,658.971334333,658.971334333,658.971334333,658.971334333,665.423579708,7,-7,2,1.0,6.448535541000069,2.0,5.229042375000063,658.5228235,658.5249114579999,658.971334333,658.807733208,,,,,,,,658.5192864999999,658.5227756249999,None,,,,,,,,,,,203,kitchen,2,2024-03-18_10h07.58.656,image_similarity_rating,2023.2.3,None,2024-03-18 10h08.25.781471 +0100,
,126,141,517,517,stimuli/own/kitchen/126_kit.jpg,stimuli/own/kitchen/141_kit.jpg,,,,,,,,,0,77,77,516,665.436131708,,,,,,,,,,,665.720891125,665.886676291,665.886676291,665.886676291,665.886676291,665.886676291,665.886676291,665.886676291,665.886676291,665.886676291,674.240656958,7,-7,2,2.0,7.1668697499999325,1.0,8.071767499999964,665.427351375,665.436131708,665.886676291,665.720878333,,,,,,,,665.423805291,665.427303833,None,,,,,,,,,,,203,kitchen,2,2024-03-18_10h07.58.656,image_similarity_rating,2023.2.3,None,2024-03-18 10h08.25.781471 +0100,
,113,114,271,271,stimuli/own/kitchen/113_kit.jpg,stimuli/own/kitchen/114_kit.jpg,,,,,,,,,0,78,78,270,674.252867791,,,,,,,,,,,674.537985125,674.7042744999999,674.7042744999999,674.7042744999999,674.7042744999999,674.7042744999999,674.7042744999999,674.7042744999999,674.7042744999999,674.7042744999999,680.0759725830001,-7,7,2,2.0,5.406225457999994,1.0,3.758442083000091,674.244390375,674.252867791,674.7042744999999,674.537967791,,,,,,,,674.240877916,674.2443424159999,None,,,,,,,,,,,203,kitchen,2,2024-03-18_10h07.58.656,image_similarity_rating,2023.2.3,None,2024-03-18 10h08.25.781471 +0100,
,123,132,467,467,stimuli/own/kitchen/123_kit.jpg,stimuli/own/kitchen/132_kit.jpg,,,,,,,,,0,79,79,466,680.0862574160001,,,,,,,,,,,680.3717173329999,680.538585083,680.538585083,680.538585083,680.538585083,680.538585083,680.538585083,680.538585083,680.538585083,680.538585083,684.7222328329999,7,-7,2,2.0,4.170050958999923,1.0,3.121629582999958,680.079640291,680.0862574160001,680.538585083,680.3716984580001,,,,,,,,680.076194625,680.079593083,None,,,,,,,,,,,203,kitchen,2,2024-03-18_10h07.58.656,image_similarity_rating,2023.2.3,None,2024-03-18 10h08.25.781471 +0100,
,105,117,138,138,stimuli/own/kitchen/105_kit.jpg,stimuli/own/kitchen/117_kit.jpg,,,,,,,,,0,80,80,137,684.72816825,,,,,,,,,,,685.020781875,685.188753791,685.188753791,685.188753791,685.188753791,685.188753791,685.188753791,685.188753791,685.188753791,685.188753791,690.044696083,-7,7,2,1.0,4.021191625000029,1.0,4.721665499999972,684.725921666,684.72816825,685.188753791,685.0207640000001,,,,,,,,684.7224516250001,684.7258742910001,None,,,,,,,,,,,203,kitchen,2,2024-03-18_10h07.58.656,image_similarity_rating,2023.2.3,None,2024-03-18 10h08.25.781471 +0100,
,105,116,137,137,stimuli/own/kitchen/105_kit.jpg,stimuli/own/kitchen/116_kit.jpg,,,,,,,,,0,81,81,136,690.052759916,,,,,,,,,,,690.3372743330001,690.5029663329999,690.5029663329999,690.5029663329999,690.5029663329999,690.5029663329999,690.5029663329999,690.5029663329999,690.5029663329999,690.5029663329999,693.918137333,7,-7,2,2.0,3.4362831250000454,3.0,2.587205499999982,690.0483859579999,690.052759916,690.5029663329999,690.3372534160001,,,,,,,,690.04491575,690.0483387080001,None,,,,,,,,,,,203,kitchen,2,2024-03-18_10h07.58.656,image_similarity_rating,2023.2.3,None,2024-03-18 10h08.25.781471 +0100,
,125,141,504,504,stimuli/own/kitchen/125_kit.jpg,stimuli/own/kitchen/141_kit.jpg,,,,,,,,,0,82,82,503,693.9236256249999,,,,,,,,,,,694.2082883749999,694.3766767499999,694.3766767499999,694.3766767499999,694.3766767499999,694.3766767499999,694.3766767499999,694.3766767499999,694.3766767499999,694.3766767499999,699.373569333,7,-7,2,1.0,4.966108208000037,2.0,4.079430542000068,693.9218625409999,693.9236256249999,694.3766767499999,694.208270458,,,,,,,,693.918383291,693.921815333,None,,,,,,,,,,,203,kitchen,2,2024-03-18_10h07.58.656,image_similarity_rating,2023.2.3,None,2024-03-18 10h08.25.781471 +0100,
,136,141,585,585,stimuli/own/kitchen/136_kit.jpg,stimuli/own/kitchen/141_kit.jpg,,,,,,,,,0,83,83,584,699.3860146659999,,,,,,,,,,,699.671055583,699.8351916659999,699.8351916659999,699.8351916659999,699.8351916659999,699.8351916659999,699.8351916659999,699.8351916659999,699.8351916659999,699.8351916659999,703.8229974999999,7,-7,2,1.0,3.951218833999974,1.0,2.7381756669999504,699.3774651660001,699.3860146659999,699.8351916659999,699.6710419999999,,,,,,,,699.37381775,699.3774155829999,None,,,,,,,,,,,203,kitchen,2,2024-03-18_10h07.58.656,image_similarity_rating,2023.2.3,None,2024-03-18 10h08.25.781471 +0100,
,124,130,480,480,stimuli/own/kitchen/124_kit.jpg,stimuli/own/kitchen/130_kit.jpg,,,,,,,,,0,84,84,479,703.8288379999999,,,,,,,,,,,704.120666416,704.288747541,704.288747541,704.288747541,704.288747541,704.288747541,704.288747541,704.288747541,704.288747541,704.288747541,711.8145565,-7,7,2,4.0,6.962850708000019,2.0,7.437962916999936,703.826882416,703.8288379999999,704.288747541,704.1206446660001,,,,,,,,703.8232365829999,703.8268322910001,None,,,,,,,,,,,203,kitchen,2,2024-03-18_10h07.58.656,image_similarity_rating,2023.2.3,None,2024-03-18 10h08.25.781471 +0100,
,105,123,144,144,stimuli/own/kitchen/105_kit.jpg,stimuli/own/kitchen/123_kit.jpg,,,,,,,,,0,85,85,143,711.8205155410001,,,,,,,,,,,712.103731833,712.266757916,712.266757916,712.266757916,712.266757916,712.266757916,712.266757916,712.266757916,712.266757916,712.266757916,718.1554495,7,-7,2,3.0,5.819454833000009,4.0,5.108980999999972,711.8183017910001,711.8205155410001,712.266757916,712.1037208749999,,,,,,,,711.814779416,711.8182467080001,None,,,,,,,,,,,203,kitchen,2,2024-03-18_10h07.58.656,image_similarity_rating,2023.2.3,None,2024-03-18 10h08.25.781471 +0100,
,120,136,419,419,stimuli/own/kitchen/120_kit.jpg,stimuli/own/kitchen/136_kit.jpg,,,,,,,,,0,86,86,418,718.161081125,,,,,,,,,,,718.454825041,718.6224106249999,718.6224106249999,718.6224106249999,718.6224106249999,718.6224106249999,718.6224106249999,718.6224106249999,718.6224106249999,718.6224106249999,722.381456375,-7,7,2,1.0,3.7673902499999485,4.0,3.033411708000017,718.159286333,718.161081125,718.6224106249999,718.454808875,,,,,,,,718.1556814159999,718.1592371659999,None,,,,,,,,,,,203,kitchen,2,2024-03-18_10h07.58.656,image_similarity_rating,2023.2.3,None,2024-03-18 10h08.25.781471 +0100,
,121,130,432,432,stimuli/own/kitchen/121_kit.jpg,stimuli/own/kitchen/130_kit.jpg,,,,,,,,,0,87,87,431,722.38740325,,,,,,,,,,,722.6713306249999,722.836811916,722.836811916,722.836811916,722.836811916,722.836811916,722.836811916,722.836811916,722.836811916,722.836811916,727.113617833,7,-7,2,1.0,4.264569959000028,1.0,2.7722145840000394,722.3852396249999,722.38740325,722.836811916,722.671312833,,,,,,,,722.381676,722.3851925829999,None,,,,,,,,,,,203,kitchen,2,2024-03-18_10h07.58.656,image_similarity_rating,2023.2.3,None,2024-03-18 10h08.25.781471 +0100,
,103,106,70,70,stimuli/own/kitchen/103_kit.jpg,stimuli/own/kitchen/106_kit.jpg,,,,,,,,,0,88,88,69,727.119125833,,,,,,,,,,,727.403836958,727.5697196250001,727.5697196250001,727.5697196250001,727.5697196250001,727.5697196250001,727.5697196250001,727.5697196250001,727.5697196250001,727.5697196250001,730.781687375,-7,7,2,1.0,3.1999456659999623,1.0,2.416657332999989,727.117285625,727.119125833,727.5697196250001,727.4038216250001,,,,,,,,727.1138390000001,727.1172383749999,None,,,,,,,,,,,203,kitchen,2,2024-03-18_10h07.58.656,image_similarity_rating,2023.2.3,None,2024-03-18 10h08.25.781471 +0100,
,103,126,86,86,stimuli/own/kitchen/103_kit.jpg,stimuli/own/kitchen/126_kit.jpg,,,,,,,,,0,89,89,85,730.7877370409999,,,,,,,,,,,731.0713317079999,731.2363151659999,731.2363151659999,731.2363151659999,731.2363151659999,731.2363151659999,731.2363151659999,731.2363151659999,731.2363151659999,731.2363151659999,734.5065999999999,-7,7,2,1.0,3.2926653750000696,1.0,1.730990166999959,730.785391291,730.7877370409999,731.2363151659999,731.0713176659999,,,,,,,,730.7819084580001,730.78534425,None,,,,,,,,,,,203,kitchen,2,2024-03-18_10h07.58.656,image_similarity_rating,2023.2.3,None,2024-03-18 10h08.25.781471 +0100,
,102,118,46,46,stimuli/own/kitchen/102_kit.jpg,stimuli/own/kitchen/118_kit.jpg,,,,,,,,,0,90,90,45,734.5192206659999,,,,,,,,,,,734.8042096659999,734.9686960829999,734.9686960829999,734.9686960829999,734.9686960829999,734.9686960829999,734.9686960829999,734.9686960829999,734.9686960829999,734.9686960829999,742.5928886659999,-7,7,2,3.0,6.750263375000031,2.0,7.562735041999986,734.510315083,734.5192206659999,734.9686960829999,734.804196375,,,,,,,,734.5068167079999,734.5102684159999,None,,,,,,,,,,,203,kitchen,2,2024-03-18_10h07.58.656,image_similarity_rating,2023.2.3,None,2024-03-18 10h08.25.781471 +0100,
,111,123,228,228,stimuli/own/kitchen/111_kit.jpg,stimuli/own/kitchen/123_kit.jpg,,,,,,,,,0,91,91,227,742.6025635829999,,,,,,,,,,,742.8872148749999,743.0523525409999,743.0523525409999,743.0523525409999,743.0523525409999,743.0523525409999,743.0523525409999,743.0523525409999,743.0523525409999,743.0523525409999,753.08865975,-7,7,2,2.0,9.976749625000139,3.0,9.181905832999973,742.5965845829999,742.6025635829999,743.0523525409999,742.8871954159999,,,,,,,,742.59312125,742.596537416,None,,,,,,,,,,,203,kitchen,2,2024-03-18_10h07.58.656,image_similarity_rating,2023.2.3,None,2024-03-18 10h08.25.781471 +0100,
,113,134,288,288,stimuli/own/kitchen/113_kit.jpg,stimuli/own/kitchen/134_kit.jpg,,,,,,,,,0,92,92,287,753.0945662079998,,,,,,,,,,,753.3871396249999,753.5545722909999,753.5545722909999,753.5545722909999,753.5545722909999,753.5545722909999,753.5545722909999,753.5545722909999,753.5545722909999,753.5545722909999,772.589965291,-7,7,2,1.0,17.55326462500011,4.0,18.880087833999823,753.092461708,753.0945662079998,753.5545722909999,753.3871148329999,,,,,,,,753.088891291,753.092413541,None,,,,,,,,,,,203,kitchen,2,2024-03-18_10h07.58.656,image_similarity_rating,2023.2.3,None,2024-03-18 10h08.25.781471 +0100,
,104,122,113,113,stimuli/own/kitchen/104_kit.jpg,stimuli/own/kitchen/122_kit.jpg,,,,,,,,,0,93,93,112,772.6023251659999,,,,,,,,,,,772.888238666,773.0532532499999,773.0532532499999,773.0532532499999,773.0532532499999,773.0532532499999,773.0532532499999,773.0532532499999,773.0532532499999,773.0532532499999,778.7474065409999,-7,7,2,3.0,5.7014942079999855,1.0,4.558192583999926,772.5939778749998,772.6023251659999,773.0532532499999,772.88821925,,,,,,,,772.5902020409999,772.5939276659999,None,,,,,,,,,,,203,kitchen,2,2024-03-18_10h07.58.656,image_similarity_rating,2023.2.3,None,2024-03-18 10h08.25.781471 +0100,
,122,125,445,445,stimuli/own/kitchen/122_kit.jpg,stimuli/own/kitchen/125_kit.jpg,,,,,,,,,0,94,94,444,778.7536521659999,,,,,,,,,,,779.03767225,779.204534083,779.204534083,779.204534083,779.204534083,779.204534083,779.204534083,779.204534083,779.204534083,779.204534083,781.1813131249999,7,-7,2,3.0,1.9466880830000264,1.0,1.3287780420000672,778.751211458,778.7536521659999,779.204534083,779.0376515,,,,,,,,778.747629708,778.7511636249999,None,,,,,,,,,,,203,kitchen,2,2024-03-18_10h07.58.656,image_similarity_rating,2023.2.3,None,2024-03-18 10h08.25.781471 +0100,
,124,127,478,478,stimuli/own/kitchen/124_kit.jpg,stimuli/own/kitchen/127_kit.jpg,,,,,,,,,0,95,95,477,781.187086208,,,,,,,,,,,781.4710132499999,781.6369158749999,781.6369158749999,781.6369158749999,781.6369158749999,781.6369158749999,781.6369158749999,781.6369158749999,781.6369158749999,781.6369158749999,783.9547888329998,7,-7,2,2.0,2.291103459000169,3.0,1.7564865409999584,781.1850221249999,781.187086208,781.6369158749999,781.4709983329999,,,,,,,,781.181529791,781.1849749159999,None,,,,,,,,,,,203,kitchen,2,2024-03-18_10h07.58.656,image_similarity_rating,2023.2.3,None,2024-03-18 10h08.25.781471 +0100,
,114,122,302,302,stimuli/own/kitchen/114_kit.jpg,stimuli/own/kitchen/122_kit.jpg,,,,,,,,,0,96,96,301,783.960542541,,,,,,,,,,,784.254169,784.4197005409999,784.4197005409999,784.4197005409999,784.4197005409999,784.4197005409999,784.4197005409999,784.4197005409999,784.4197005409999,784.4197005409999,789.9471134159999,7,-7,2,3.0,4.702469208000139,2.0,5.376180833000035,783.958482125,783.960542541,784.4197005409999,784.2541555829998,,,,,,,,783.95501225,783.958434833,None,,,,,,,,,,,203,kitchen,2,2024-03-18_10h07.58.656,image_similarity_rating,2023.2.3,None,2024-03-18 10h08.25.781471 +0100,
,101,123,18,18,stimuli/own/kitchen/101_kit.jpg,stimuli/own/kitchen/123_kit.jpg,,,,,,,,,0,97,97,17,789.969423541,,,,,,,,,,,790.2530772499999,790.418935083,790.418935083,790.418935083,790.418935083,790.418935083,790.418935083,790.418935083,790.418935083,790.418935083,796.151130833,7,-7,2,3.0,3.3914362919999803,4.0,2.2283412920000956,789.9507713329999,789.969423541,,790.253054583,,,,,,,,789.947334,789.950725125,None,,,,,,,,,,,203,kitchen,2,2024-03-18_10h07.58.656,image_similarity_rating,2023.2.3,None,2024-03-18 10h08.25.781471 +0100,
,112,131,261,261,stimuli/own/kitchen/112_kit.jpg,stimuli/own/kitchen/131_kit.jpg,,,,,,,,,0,98,98,260,796.1568723329999,,,,,,,,,,,796.4535826659999,796.61911925,796.61911925,796.61911925,796.61911925,796.61911925,796.61911925,796.61911925,796.61911925,796.61911925,807.1758882499998,7,-7,2,1.0,3.4064687080001477,2.0,10.469299541000055,796.1548722499999,796.1568723329999,796.61911925,796.453568125,,,,,,,,796.1513816249999,796.1548251659999,None,,,,,,,,,,,203,kitchen,2,2024-03-18_10h07.58.656,image_similarity_rating,2023.2.3,None,2024-03-18 10h08.25.781471 +0100,
,125,136,499,499,stimuli/own/kitchen/125_kit.jpg,stimuli/own/kitchen/136_kit.jpg,,,,,,,,,0,99,99,498,807.1856829579999,,,,,,,,,,,807.4702394999999,807.636503208,807.636503208,807.636503208,807.636503208,807.636503208,807.636503208,807.636503208,807.636503208,807.636503208,815.637929041,-7,7,2,2.0,7.538408375000017,5.0,3.7924089579998963,807.179562541,807.1856829579999,807.636503208,807.470222083,,,,,,,,807.1761126249999,807.179514958,None,,,,,,,,,,,203,kitchen,2,2024-03-18_10h07.58.656,image_similarity_rating,2023.2.3,None,2024-03-18 10h08.25.781471 +0100,
,136,139,583,600,stimuli/own/kitchen/136_kit.jpg,stimuli/own/kitchen/139_kit.jpg,,,,,,,,,0,100,100,599,815.6435474999998,,,,,,,,,,,815.937010458,816.102271625,816.102271625,816.102271625,816.102271625,816.102271625,816.102271625,816.102271625,816.102271625,816.102271625,823.637872041,-7,7,2,2.0,7.41481487499982,4.0,6.067455999999993,815.641604125,815.6435474999998,816.102271625,815.936996125,,,,,,,,815.638148666,815.64155725,None,,,,,,,,,,,203,kitchen,2,2024-03-18_10h07.58.656,image_similarity_rating,2023.2.3,None,2024-03-18 10h08.25.781471 +0100,
,118,135,379,379,stimuli/own/kitchen/118_kit.jpg,stimuli/own/kitchen/135_kit.jpg,,,,,,,,,0,101,101,378,823.64348025,,,,,,,,,,,823.9377099999999,824.1076639999999,824.1076639999999,824.1076639999999,824.1076639999999,824.1076639999999,824.1076639999999,824.1076639999999,824.1076639999999,824.1076639999999,836.3051082909999,7,-7,2,2.0,12.135020082999972,1.0,11.38511362500003,823.64154525,823.64348025,824.1076639999999,823.9376938749999,,,,,,,,823.638092291,823.6414983329998,None,,,,,,,,,,,203,kitchen,2,2024-03-18_10h07.58.656,image_similarity_rating,2023.2.3,None,2024-03-18 10h08.25.781471 +0100,
,136,139,583,601,stimuli/own/kitchen/136_kit.jpg,stimuli/own/kitchen/139_kit.jpg,,,,,,,,,0,102,102,600,836.310549583,,,,,,,,,,,836.603484833,836.7720288329999,836.7720288329999,836.7720288329999,836.7720288329999,836.7720288329999,836.7720288329999,836.7720288329999,836.7720288329999,836.7720288329999,848.572813041,7,-7,2,1.0,11.818100375000085,4.0,10.797511957999859,836.3087807079999,836.310549583,836.7720288329999,836.603467958,,,,,,,,836.305327666,836.308733541,None,,,,,,,,,,,203,kitchen,2,2024-03-18_10h07.58.656,image_similarity_rating,2023.2.3,None,2024-03-18 10h08.25.781471 +0100,
,103,113,74,74,stimuli/own/kitchen/103_kit.jpg,stimuli/own/kitchen/113_kit.jpg,,,,,,,,,0,103,103,73,848.585359916,,,,,,,,,,,848.8700381249998,849.0360587079999,849.0360587079999,849.0360587079999,849.0360587079999,849.0360587079999,849.0360587079999,849.0360587079999,849.0360587079999,849.0360587079999,853.0921443749999,-7,7,2,2.0,4.029064040999856,4.0,2.216331624999839,848.576717208,848.585359916,849.0360587079999,848.8700227079999,,,,,,,,848.573060125,848.576668083,None,,,,,,,,,,,203,kitchen,2,2024-03-18_10h07.58.656,image_similarity_rating,2023.2.3,None,2024-03-18 10h08.25.781471 +0100,
,109,112,191,191,stimuli/own/kitchen/109_kit.jpg,stimuli/own/kitchen/112_kit.jpg,,,,,,,,,0,104,104,190,853.1017795,,,,,,,,,,,853.38656825,853.5529260829999,853.5529260829999,853.5529260829999,853.5529260829999,853.5529260829999,853.5529260829999,853.5529260829999,853.5529260829999,853.5529260829999,860.823158166,-7,7,2,1.0,7.133605374999888,1.0,5.836699708999959,853.0958336659999,853.1017795,853.5529260829999,853.3865530409998,,,,,,,,853.0923666659999,853.0957865,None,,,,,,,,,,,203,kitchen,2,2024-03-18_10h07.58.656,image_similarity_rating,2023.2.3,None,2024-03-18 10h08.25.781471 +0100,
,105,130,150,150,stimuli/own/kitchen/105_kit.jpg,stimuli/own/kitchen/130_kit.jpg,,,,,,,,,0,105,105,149,860.8353540409998,,,,,,,,,,,861.1200106249998,861.2856039159999,861.2856039159999,861.2856039159999,861.2856039159999,861.2856039159999,861.2856039159999,861.2856039159999,861.2856039159999,861.2856039159999,869.9300311659999,-7,7,2,2.0,7.78101529200012,3.0,8.357729832999894,860.8268988329999,860.8353540409998,861.2856039159999,861.1199958329998,,,,,,,,860.823381916,860.826851541,None,,,,,,,,,,,203,kitchen,2,2024-03-18_10h07.58.656,image_similarity_rating,2023.2.3,None,2024-03-18 10h08.25.781471 +0100,
,117,121,346,346,stimuli/own/kitchen/117_kit.jpg,stimuli/own/kitchen/121_kit.jpg,,,,,,,,,0,106,106,345,869.9522212499999,,,,,,,,,,,870.236130625,870.403811166,870.403811166,870.403811166,870.403811166,870.403811166,870.403811166,870.403811166,870.403811166,870.403811166,872.8848909579999,7,-7,2,1.0,2.4193073750000167,1.0,1.8320378329999585,869.9337097499999,869.9522212499999,,870.23610725,,,,,,,,869.9302554579999,869.933662083,None,,,,,,,,,,,203,kitchen,2,2024-03-18_10h07.58.656,image_similarity_rating,2023.2.3,None,2024-03-18 10h08.25.781471 +0100,
,111,135,238,238,stimuli/own/kitchen/111_kit.jpg,stimuli/own/kitchen/135_kit.jpg,,,,,,,,,0,107,107,237,872.8906307499999,,,,,,,,,,,873.174584916,873.3362587079998,873.3362587079998,873.3362587079998,873.3362587079998,873.3362587079998,873.3362587079998,873.3362587079998,873.3362587079998,873.3362587079998,877.2764912079999,-7,7,2,2.0,3.862043708000101,3.0,3.2049502499999107,872.888701416,872.8906307499999,873.3362587079998,873.1745738749999,,,,,,,,872.885118791,872.8886545409998,None,,,,,,,,,,,203,kitchen,2,2024-03-18_10h07.58.656,image_similarity_rating,2023.2.3,None,2024-03-18 10h08.25.781471 +0100,
,109,131,208,208,stimuli/own/kitchen/109_kit.jpg,stimuli/own/kitchen/131_kit.jpg,,,,,,,,,0,108,108,207,877.2856113749999,,,,,,,,,,,877.5706311249999,877.7355091659999,877.7355091659999,877.7355091659999,877.7355091659999,877.7355091659999,877.7355091659999,877.7355091659999,877.7355091659999,877.7355091659999,881.971762958,-7,7,2,1.0,2.7563295830000243,1.0,3.5859761250001156,877.2801609159999,877.2856113749999,877.7355091659999,877.5706190829999,,,,,,,,877.2767125409998,877.2801139159999,None,,,,,,,,,,,203,kitchen,2,2024-03-18_10h07.58.656,image_similarity_rating,2023.2.3,None,2024-03-18 10h08.25.781471 +0100,
,118,137,381,381,stimuli/own/kitchen/118_kit.jpg,stimuli/own/kitchen/137_kit.jpg,,,,,,,,,0,109,109,380,881.9773639999999,,,,,,,,,,,882.2698638749998,882.438801458,882.438801458,882.438801458,882.438801458,882.438801458,882.438801458,882.438801458,882.438801458,882.438801458,885.1595573749998,-7,7,2,1.0,2.719125958999939,2.0,1.9218672090000837,881.97544225,881.9773639999999,882.438801458,882.2698466659999,,,,,,,,881.971990541,881.975395791,None,,,,,,,,,,,203,kitchen,2,2024-03-18_10h07.58.656,image_similarity_rating,2023.2.3,None,2024-03-18 10h08.25.781471 +0100,
,132,140,566,566,stimuli/own/kitchen/132_kit.jpg,stimuli/own/kitchen/140_kit.jpg,,,,,,,,,0,110,110,565,885.1686647079998,,,,,,,,,,,885.453307666,885.6179113329999,885.6179113329999,885.6179113329999,885.6179113329999,885.6179113329999,885.6179113329999,885.6179113329999,885.6179113329999,885.6179113329999,892.2933732499998,7,-7,2,3.0,6.607707625000103,4.0,1.9824345829999857,885.163338375,885.1686647079998,885.6179113329999,885.4532944159998,,,,,,,,885.159781541,885.1632843329999,None,,,,,,,,,,,203,kitchen,2,2024-03-18_10h07.58.656,image_similarity_rating,2023.2.3,None,2024-03-18 10h08.25.781471 +0100,
,103,123,83,83,stimuli/own/kitchen/103_kit.jpg,stimuli/own/kitchen/123_kit.jpg,,,,,,,,,0,111,111,82,892.3022169999999,,,,,,,,,,,892.58735,892.7531403749999,892.7531403749999,892.7531403749999,892.7531403749999,892.7531403749999,892.7531403749999,892.7531403749999,892.7531403749999,892.7531403749999,906.884720583,7,-7,2,1.0,13.791749083000013,5.0,6.183752291000019,892.297171958,892.3022169999999,892.7531403749999,892.5873359999998,,,,,,,,892.293593208,892.2971252499999,None,,,,,,,,,,,203,kitchen,2,2024-03-18_10h07.58.656,image_similarity_rating,2023.2.3,None,2024-03-18 10h08.25.781471 +0100,
,121,132,434,434,stimuli/own/kitchen/121_kit.jpg,stimuli/own/kitchen/132_kit.jpg,,,,,,,,,0,112,112,433,906.890702166,,,,,,,,,,,907.174927416,907.340078666,907.340078666,907.340078666,907.340078666,907.340078666,907.340078666,907.340078666,907.340078666,907.340078666,911.4384821249998,-7,7,2,3.0,4.078916666000168,5.0,2.781709749999891,906.888450958,906.890702166,907.340078666,907.174914666,,,,,,,,906.884941041,906.888403291,None,,,,,,,,,,,203,kitchen,2,2024-03-18_10h07.58.656,image_similarity_rating,2023.2.3,None,2024-03-18 10h08.25.781471 +0100,
,114,132,311,311,stimuli/own/kitchen/114_kit.jpg,stimuli/own/kitchen/132_kit.jpg,,,,,,,,,0,113,113,310,911.452120291,,,,,,,,,,,911.7370329579999,911.9026125,911.9026125,911.9026125,911.9026125,911.9026125,911.9026125,911.9026125,911.9026125,911.9026125,916.443016083,-7,7,2,4.0,3.304926667000018,3.0,4.50863354199987,911.442518541,911.452120291,911.9026125,911.7370177079999,,,,,,,,911.4387187909999,911.4424689579998,None,,,,,,,,,,,203,kitchen,2,2024-03-18_10h07.58.656,image_similarity_rating,2023.2.3,None,2024-03-18 10h08.25.781471 +0100,
,117,141,364,364,stimuli/own/kitchen/117_kit.jpg,stimuli/own/kitchen/141_kit.jpg,,,,,,,,,0,114,114,363,916.4517418749999,,,,,,,,,,,916.736471958,916.903405,916.903405,916.903405,916.903405,916.903405,916.903405,916.903405,916.903405,916.903405,924.3464101659999,-7,7,2,2.0,7.410038332999875,4.0,4.233898624999938,916.446690125,916.4517418749999,916.903405,916.736451083,,,,,,,,916.443244375,916.4466432499999,None,,,,,,,,,,,203,kitchen,2,2024-03-18_10h07.58.656,image_similarity_rating,2023.2.3,None,2024-03-18 10h08.25.781471 +0100,
,104,120,111,111,stimuli/own/kitchen/104_kit.jpg,stimuli/own/kitchen/120_kit.jpg,,,,,,,,,0,115,115,110,924.3686513749999,,,,,,,,,,,924.6526363329999,924.8194786659999,924.8194786659999,924.8194786659999,924.8194786659999,924.8194786659999,924.8194786659999,924.8194786659999,924.8194786659999,924.8194786659999,929.0340180829999,-7,7,2,2.0,4.219088332999945,3.0,3.43237924999994,924.350253458,924.3686513749999,,924.6526175829999,,,,,,,,924.3466311249999,924.3502067499999,None,,,,,,,,,,,203,kitchen,2,2024-03-18_10h07.58.656,image_similarity_rating,2023.2.3,None,2024-03-18 10h08.25.781471 +0100,
,118,134,378,378,stimuli/own/kitchen/118_kit.jpg,stimuli/own/kitchen/134_kit.jpg,,,,,,,,,0,116,116,377,929.0397094999998,,,,,,,,,,,929.3237945409999,929.488391291,929.488391291,929.488391291,929.488391291,929.488391291,929.488391291,929.488391291,929.488391291,929.488391291,933.53370475,7,-7,2,2.0,3.98083900000006,4.0,3.3277551659998608,929.037760208,929.0397094999998,929.488391291,929.3237783329998,,,,,,,,929.0342664999998,929.0377127909999,None,,,,,,,,,,,203,kitchen,2,2024-03-18_10h07.58.656,image_similarity_rating,2023.2.3,None,2024-03-18 10h08.25.781471 +0100,
,105,121,142,142,stimuli/own/kitchen/105_kit.jpg,stimuli/own/kitchen/121_kit.jpg,,,,,,,,,0,117,117,141,933.539382708,,,,,,,,,,,933.824447875,933.988404916,933.988404916,933.988404916,933.988404916,933.988404916,933.988404916,933.988404916,933.988404916,933.988404916,941.291987458,7,-7,2,3.0,7.206620791999967,2.0,4.703183416999991,933.537443083,933.539382708,933.988404916,933.824434291,,,,,,,,933.533923875,933.537396083,None,,,,,,,,,,,203,kitchen,2,2024-03-18_10h07.58.656,image_similarity_rating,2023.2.3,None,2024-03-18 10h08.25.781471 +0100,
,116,118,321,321,stimuli/own/kitchen/116_kit.jpg,stimuli/own/kitchen/118_kit.jpg,,,,,,,,,0,118,118,320,941.3018164999999,,,,,,,,,,,941.5864632079999,941.7512743749999,941.7512743749999,941.7512743749999,941.7512743749999,941.7512743749999,941.7512743749999,941.7512743749999,941.7512743749999,941.7512743749999,945.7540742909998,7,-7,2,3.0,3.9266623329999675,5.0,3.1033464580000327,941.2957845409999,941.3018164999999,941.7512743749999,941.586447166,,,,,,,,941.2922074579999,941.295737166,None,,,,,,,,,,,203,kitchen,2,2024-03-18_10h07.58.656,image_similarity_rating,2023.2.3,None,2024-03-18 10h08.25.781471 +0100,
,127,135,523,523,stimuli/own/kitchen/127_kit.jpg,stimuli/own/kitchen/135_kit.jpg,,,,,,,,,0,119,119,522,945.759826791,,,,,,,,,,,946.052938,946.2216632909999,946.2216632909999,946.2216632909999,946.2216632909999,946.2216632909999,946.2216632909999,946.2216632909999,946.2216632909999,946.2216632909999,949.4584796249999,-7,7,2,2.0,2.301287499999944,4.0,3.07322120799995,945.7578690409998,945.759826791,946.2216632909999,946.0529038749999,,,,,,,,945.7542953329998,945.7578214999999,None,,,,,,,,,,,203,kitchen,2,2024-03-18_10h07.58.656,image_similarity_rating,2023.2.3,None,2024-03-18 10h08.25.781471 +0100,
,114,127,307,307,stimuli/own/kitchen/114_kit.jpg,stimuli/own/kitchen/127_kit.jpg,,,,,,,,,0,120,120,306,949.468266958,,,,,,,,,,,949.753049875,949.9206689159998,949.9206689159998,949.9206689159998,949.9206689159998,949.9206689159998,949.9206689159998,949.9206689159998,949.9206689159998,949.9206689159998,952.7797063329999,7,-7,2,2.0,1.8680140000001302,4.0,2.659998500000029,949.4621656659999,949.468266958,949.9206689159998,949.7530334159999,,,,,,,,949.458704875,949.4621177909999,None,,,,,,,,,,,203,kitchen,2,2024-03-18_10h07.58.656,image_similarity_rating,2023.2.3,None,2024-03-18 10h08.25.781471 +0100,
,127,132,521,521,stimuli/own/kitchen/127_kit.jpg,stimuli/own/kitchen/132_kit.jpg,,,,,,,,,0,121,121,520,952.8018858749999,,,,,,,,,,,953.085726625,953.25550475,953.25550475,953.25550475,953.25550475,953.25550475,953.25550475,953.25550475,953.25550475,953.25550475,957.3472192079998,7,-7,2,1.0,3.8491395840001132,2.0,3.09676433300001,952.7833604579998,952.8018858749999,,953.085706583,,,,,,,,952.7799252079999,952.783313166,None,,,,,,,,,,,203,kitchen,2,2024-03-18_10h07.58.656,image_similarity_rating,2023.2.3,None,2024-03-18 10h08.25.781471 +0100,
,102,120,48,48,stimuli/own/kitchen/102_kit.jpg,stimuli/own/kitchen/120_kit.jpg,,,,,,,,,0,122,122,47,957.352873625,,,,,,,,,,,957.63646225,957.8017522079999,957.8017522079999,957.8017522079999,957.8017522079999,957.8017522079999,957.8017522079999,957.8017522079999,957.8017522079999,957.8017522079999,962.996340916,-7,7,2,3.0,5.2692102089999935,3.0,3.656374542000094,957.350921875,957.352873625,957.8017522079999,957.636446,,,,,,,,957.3474390409999,957.350874875,None,,,,,,,,,,,203,kitchen,2,2024-03-18_10h07.58.656,image_similarity_rating,2023.2.3,None,2024-03-18 10h08.25.781471 +0100,
,111,132,236,236,stimuli/own/kitchen/111_kit.jpg,stimuli/own/kitchen/132_kit.jpg,,,,,,,,,0,123,123,235,963.018521875,,,,,,,,,,,963.3024198749999,963.466371583,963.466371583,963.466371583,963.466371583,963.466371583,963.466371583,963.466371583,963.466371583,963.466371583,967.2136705829998,-7,7,2,2.0,3.7309318749998965,5.0,3.0550409590000527,963.00003275,963.018521875,,963.302409166,,,,,,,,962.9965763329999,962.9999848749999,None,,,,,,,,,,,203,kitchen,2,2024-03-18_10h07.58.656,image_similarity_rating,2023.2.3,None,2024-03-18 10h08.25.781471 +0100,
,119,127,393,393,stimuli/own/kitchen/119_kit.jpg,stimuli/own/kitchen/127_kit.jpg,,,,,,,,,0,124,124,392,967.2194286249999,,,,,,,,,,,967.503491125,967.6678441249999,967.6678441249999,967.6678441249999,967.6678441249999,967.6678441249999,967.6678441249999,967.6678441249999,967.6678441249999,967.6678441249999,973.005461708,-7,7,2,2.0,5.353168792000133,4.0,4.467487291999987,967.2173889999999,967.2194286249999,967.6678441249999,967.503473041,,,,,,,,967.2138909579999,967.217341625,None,,,,,,,,,,,203,kitchen,2,2024-03-18_10h07.58.656,image_similarity_rating,2023.2.3,None,2024-03-18 10h08.25.781471 +0100,
,122,136,454,454,stimuli/own/kitchen/122_kit.jpg,stimuli/own/kitchen/136_kit.jpg,,,,,,,,,0,125,125,453,973.01837475,,,,,,,,,,,973.3038020409999,973.4694420409999,973.4694420409999,973.4694420409999,973.4694420409999,973.4694420409999,973.4694420409999,973.4694420409999,973.4694420409999,973.4694420409999,975.488880458,7,-7,2,2.0,1.0543023749999065,1.0,1.87498970799993,973.009222291,973.01837475,973.4694420409999,973.3037872079999,,,,,,,,973.005682583,973.0091748329999,None,,,,,,,,,,,203,kitchen,2,2024-03-18_10h07.58.656,image_similarity_rating,2023.2.3,None,2024-03-18 10h08.25.781471 +0100,
,101,137,30,30,stimuli/own/kitchen/101_kit.jpg,stimuli/own/kitchen/137_kit.jpg,,,,,,,,,0,126,126,29,975.501495666,,,,,,,,,,,995.840057166,996.0066964579999,996.0066964579999,996.0066964579999,996.0066964579999,996.0066964579999,996.0066964579999,996.0066964579999,996.0066964579999,996.0066964579999,1018.6467829579999,-7,7,3,1.0,18.863311709000072,2.0,22.459163750000016,995.5529327909999,995.556388125,996.0066964579999,995.8400423329999,,,,,,,,975.489110041,995.552573708,space,975.501495666,20.050907499999994,None,,,,,,,,203,kitchen,2,2024-03-18_10h07.58.656,image_similarity_rating,2023.2.3,None,2024-03-18 10h08.25.781471 +0100,
,111,117,222,222,stimuli/own/kitchen/111_kit.jpg,stimuli/own/kitchen/117_kit.jpg,,,,,,,,,0,127,127,221,1018.653058375,,,,,,,,,,,1018.9362415409998,1019.1007224999998,1019.1007224999998,1019.1007224999998,1019.1007224999998,1019.1007224999998,1019.1007224999998,1019.1007224999998,1019.1007224999998,1019.1007224999998,1033.4458063749998,-7,7,3,3.0,14.35562645899995,2.0,10.793351541999982,1018.651292,1018.653058375,1019.1007224999998,1018.9362294159998,,,,,,,,1018.6470055,1018.6512413749999,None,,,,,,,,,,,203,kitchen,2,2024-03-18_10h07.58.656,image_similarity_rating,2023.2.3,None,2024-03-18 10h08.25.781471 +0100,
,102,109,39,39,stimuli/own/kitchen/102_kit.jpg,stimuli/own/kitchen/109_kit.jpg,,,,,,,,,0,128,128,38,1033.468415375,,,,,,,,,,,1033.752096291,1033.918985333,1033.918985333,1033.918985333,1033.918985333,1033.918985333,1033.918985333,1033.918985333,1033.918985333,1033.918985333,1046.324925041,-7,7,3,2.0,12.24492162499996,4.0,11.24857029199984,1033.449514666,1033.468415375,,1033.752076833,,,,,,,,1033.446027208,1033.449467625,None,,,,,,,,,,,203,kitchen,2,2024-03-18_10h07.58.656,image_similarity_rating,2023.2.3,None,2024-03-18 10h08.25.781471 +0100,
,125,127,492,492,stimuli/own/kitchen/125_kit.jpg,stimuli/own/kitchen/127_kit.jpg,,,,,,,,,0,129,129,491,1046.334551166,,,,,,,,,,,1046.619203416,1046.785323583,1046.785323583,1046.785323583,1046.785323583,1046.785323583,1046.785323583,1046.785323583,1046.785323583,1046.785323583,1049.8050846249998,-7,7,3,2.0,3.000081874999978,3.0,2.2042539999999917,1046.328617,1046.334551166,1046.785323583,1046.6191878329998,,,,,,,,1046.325148166,1046.328569583,None,,,,,,,,,,,203,kitchen,2,2024-03-18_10h07.58.656,image_similarity_rating,2023.2.3,None,2024-03-18 10h08.25.781471 +0100,
,121,138,439,439,stimuli/own/kitchen/121_kit.jpg,stimuli/own/kitchen/138_kit.jpg,,,,,,,,,0,130,130,438,1049.818222041,,,,,,,,,,,1050.102710958,1050.2681149999999,1050.2681149999999,1050.2681149999999,1050.2681149999999,1050.2681149999999,1050.2681149999999,1050.2681149999999,1050.2681149999999,1050.2681149999999,1054.620340291,7,-7,3,2.0,4.300317875000019,3.0,3.513820166999949,1049.809087333,1049.818222041,1050.2681149999999,1050.102698125,,,,,,,,1049.805318583,1049.809037416,None,,,,,,,,,,,203,kitchen,2,2024-03-18_10h07.58.656,image_similarity_rating,2023.2.3,None,2024-03-18 10h08.25.781471 +0100,
,113,125,281,281,stimuli/own/kitchen/113_kit.jpg,stimuli/own/kitchen/125_kit.jpg,,,,,,,,,0,131,131,280,1054.626164416,,,,,,,,,,,1054.919189833,1055.0872474579999,1055.0872474579999,1055.0872474579999,1055.0872474579999,1055.0872474579999,1055.0872474579999,1055.0872474579999,1055.0872474579999,1055.0872474579999,1059.025150208,-7,7,3,2.0,4.012875374999794,4.0,2.991767457999913,1054.62415175,1054.626164416,1055.0872474579999,1054.919172916,,,,,,,,1054.62056175,1054.624104458,None,,,,,,,,,,,203,kitchen,2,2024-03-18_10h07.58.656,image_similarity_rating,2023.2.3,None,2024-03-18 10h08.25.781471 +0100,
,104,124,115,115,stimuli/own/kitchen/104_kit.jpg,stimuli/own/kitchen/124_kit.jpg,,,,,,,,,0,132,132,114,1059.0344785,,,,,,,,,,,1059.319121125,1059.4860348329998,1059.4860348329998,1059.4860348329998,1059.4860348329998,1059.4860348329998,1059.4860348329998,1059.4860348329998,1059.4860348329998,1059.4860348329998,1062.933397541,-7,7,3,1.0,2.7558906669999033,2.0,3.3852138750000904,1059.028818666,1059.0344785,1059.4860348329998,1059.3191050829998,,,,,,,,1059.0253727909999,1059.028771083,None,,,,,,,,,,,203,kitchen,2,2024-03-18_10h07.58.656,image_similarity_rating,2023.2.3,None,2024-03-18 10h08.25.781471 +0100,
,124,129,479,479,stimuli/own/kitchen/124_kit.jpg,stimuli/own/kitchen/129_kit.jpg,,,,,,,,,0,133,133,478,1062.93888875,,,,,,,,,,,1063.223188583,1063.390984875,1063.390984875,1063.390984875,1063.390984875,1063.390984875,1063.390984875,1063.390984875,1063.390984875,1063.390984875,1066.1706320409999,7,-7,3,1.0,2.762292000000116,2.0,2.141697916000112,1062.937108833,1062.93888875,1063.390984875,1063.2231745,,,,,,,,1062.933646583,1062.937062083,None,,,,,,,,,,,203,kitchen,2,2024-03-18_10h07.58.656,image_similarity_rating,2023.2.3,None,2024-03-18 10h08.25.781471 +0100,
,119,122,388,388,stimuli/own/kitchen/119_kit.jpg,stimuli/own/kitchen/122_kit.jpg,,,,,,,,,0,134,134,387,1066.18445475,,,,,,,,,,,1066.469190583,1066.636684166,1066.636684166,1066.636684166,1066.636684166,1066.636684166,1066.636684166,1066.636684166,1066.636684166,1066.636684166,1072.625846625,-7,7,3,1.0,5.887622375000092,3.0,5.043073374999949,1066.174424333,1066.18445475,1066.636684166,1066.4691726249998,,,,,,,,1066.1708589999998,1066.1743750829999,None,,,,,,,,,,,203,kitchen,2,2024-03-18_10h07.58.656,image_similarity_rating,2023.2.3,None,2024-03-18 10h08.25.781471 +0100,
,126,131,508,508,stimuli/own/kitchen/126_kit.jpg,stimuli/own/kitchen/131_kit.jpg,,,,,,,,,0,135,135,507,1072.634519541,,,,,,,,,,,1072.9192907909999,1073.0864132499999,1073.0864132499999,1073.0864132499999,1073.0864132499999,1073.0864132499999,1073.0864132499999,1073.0864132499999,1073.0864132499999,1073.0864132499999,1076.776156916,7,-7,3,1.0,3.5853722080000807,1.0,2.6402932910000345,1072.629681666,1072.634519541,1073.0864132499999,1072.9192739579998,,,,,,,,1072.6260681659999,1072.629635083,None,,,,,,,,,,,203,kitchen,2,2024-03-18_10h07.58.656,image_similarity_rating,2023.2.3,None,2024-03-18 10h08.25.781471 +0100,
,120,131,415,415,stimuli/own/kitchen/120_kit.jpg,stimuli/own/kitchen/131_kit.jpg,,,,,,,,,0,136,136,414,1076.784441583,,,,,,,,,,,1077.0697828329999,1077.234548041,1077.234548041,1077.234548041,1077.234548041,1077.234548041,1077.234548041,1077.234548041,1077.234548041,1077.234548041,1083.138598416,7,-7,3,2.0,5.016860167000004,1.0,3.5169042919999356,1076.779846875,1076.784441583,1077.234548041,1077.069769916,,,,,,,,1076.776374666,1076.779800458,None,,,,,,,,,,,203,kitchen,2,2024-03-18_10h07.58.656,image_similarity_rating,2023.2.3,None,2024-03-18 10h08.25.781471 +0100,
,105,106,131,131,stimuli/own/kitchen/105_kit.jpg,stimuli/own/kitchen/106_kit.jpg,,,,,,,,,0,137,137,130,1083.151046083,,,,,,,,,,,1083.435966333,1083.600651666,1083.600651666,1083.600651666,1083.600651666,1083.600651666,1083.600651666,1083.600651666,1083.600651666,1083.600651666,1088.283514,-7,7,3,1.0,3.789153791999979,1.0,4.581607374999976,1083.142325458,1083.151046083,1083.600651666,1083.435953041,,,,,,,,1083.1388333749999,1083.142278541,None,,,,,,,,,,,203,kitchen,2,2024-03-18_10h07.58.656,image_similarity_rating,2023.2.3,None,2024-03-18 10h08.25.781471 +0100,
,127,138,526,526,stimuli/own/kitchen/127_kit.jpg,stimuli/own/kitchen/138_kit.jpg,,,,,,,,,0,138,138,525,1088.289256291,,,,,,,,,,,1088.5738425,1088.738814958,1088.738814958,1088.738814958,1088.738814958,1088.738814958,1088.738814958,1088.738814958,1088.738814958,1088.738814958,1092.3704585829998,-7,7,3,1.0,3.4836038749999716,1.0,2.5072560000000976,1088.2873016659998,1088.289256291,1088.738814958,1088.5738307499998,,,,,,,,1088.28373225,1088.2872554159999,None,,,,,,,,,,,203,kitchen,2,2024-03-18_10h07.58.656,image_similarity_rating,2023.2.3,None,2024-03-18 10h08.25.781471 +0100,
,125,140,503,503,stimuli/own/kitchen/125_kit.jpg,stimuli/own/kitchen/140_kit.jpg,,,,,,,,,0,139,139,502,1092.376045541,,,,,,,,,,,1092.668927041,1092.832962791,1092.832962791,1092.832962791,1092.832962791,1092.832962791,1092.832962791,1092.832962791,1092.832962791,1092.832962791,1096.2584984159998,-7,7,3,1.0,3.316150249999964,2.0,2.6905259160000696,1092.3742722079999,1092.376045541,1092.832962791,1092.668913583,,,,,,,,1092.370688791,1092.3742244579998,None,,,,,,,,,,,203,kitchen,2,2024-03-18_10h07.58.656,image_similarity_rating,2023.2.3,None,2024-03-18 10h08.25.781471 +0100,
,104,138,127,127,stimuli/own/kitchen/104_kit.jpg,stimuli/own/kitchen/138_kit.jpg,,,,,,,,,0,140,140,126,1096.267726625,,,,,,,,,,,1096.552218291,1096.7190269159998,1096.7190269159998,1096.7190269159998,1096.7190269159998,1096.7190269159998,1096.7190269159998,1096.7190269159998,1096.7190269159998,1096.7190269159998,1100.833232583,-7,7,3,1.0,3.3334077909998996,3.0,4.06375054199998,1096.262180791,1096.267726625,1096.7190269159998,1096.552202958,,,,,,,,1096.258721708,1096.262134458,None,,,,,,,,,,,203,kitchen,2,2024-03-18_10h07.58.656,image_similarity_rating,2023.2.3,None,2024-03-18 10h08.25.781471 +0100,
,104,129,119,119,stimuli/own/kitchen/104_kit.jpg,stimuli/own/kitchen/129_kit.jpg,,,,,,,,,0,141,141,118,1100.8387310829999,,,,,,,,,,,1101.122819541,1101.286323958,1101.286323958,1101.286323958,1101.286323958,1101.286323958,1101.286323958,1101.286323958,1101.286323958,1101.286323958,1109.0664629579999,7,-7,3,1.0,7.233234875000107,2.0,4.1372602499998266,1100.8369438329999,1100.8387310829999,1101.286323958,1101.1228045409998,,,,,,,,1100.83347975,1100.836897083,None,,,,,,,,,,,203,kitchen,2,2024-03-18_10h07.58.656,image_similarity_rating,2023.2.3,None,2024-03-18 10h08.25.781471 +0100,
,104,119,110,110,stimuli/own/kitchen/104_kit.jpg,stimuli/own/kitchen/119_kit.jpg,,,,,,,,,0,142,142,109,1109.072125166,,,,,,,,,,,1109.3561935829998,1109.519729833,1109.519729833,1109.519729833,1109.519729833,1109.519729833,1109.519729833,1109.519729833,1109.519729833,1109.519729833,1116.090965291,-7,7,3,1.0,6.603926375000128,1.0,3.696184500000072,1109.070356833,1109.072125166,1109.519729833,1109.356178333,,,,,,,,1109.0667154999999,1109.0703100409999,None,,,,,,,,,,,203,kitchen,2,2024-03-18_10h07.58.656,image_similarity_rating,2023.2.3,None,2024-03-18 10h08.25.781471 +0100,
,111,113,219,219,stimuli/own/kitchen/111_kit.jpg,stimuli/own/kitchen/113_kit.jpg,,,,,,,,,0,143,143,218,1116.101102791,,,,,,,,,,,1116.38600825,1116.550311625,1116.550311625,1116.550311625,1116.550311625,1116.550311625,1116.550311625,1116.550311625,1116.550311625,1116.550311625,1123.350123166,-7,7,3,1.0,6.757226499999888,3.0,5.714815333999923,1116.09473325,1116.101102791,1116.550311625,1116.385991791,,,,,,,,1116.091183083,1116.094686875,None,,,,,,,,,,,203,kitchen,2,2024-03-18_10h07.58.656,image_similarity_rating,2023.2.3,None,2024-03-18 10h08.25.781471 +0100,
,118,130,375,375,stimuli/own/kitchen/118_kit.jpg,stimuli/own/kitchen/130_kit.jpg,,,,,,,,,0,144,144,374,1123.355921916,,,,,,,,,,,1123.6396082909998,1123.8054284579998,1123.8054284579998,1123.8054284579998,1123.8054284579998,1123.8054284579998,1123.8054284579998,1123.8054284579998,1123.8054284579998,1123.8054284579998,1127.891545625,7,-7,3,1.0,4.133924375000106,1.0,3.4325924580000446,1123.353835083,1123.355921916,1123.8054284579998,1123.639596166,,,,,,,,1123.350342541,1123.353788291,None,,,,,,,,,,,203,kitchen,2,2024-03-18_10h07.58.656,image_similarity_rating,2023.2.3,None,2024-03-18 10h08.25.781471 +0100,
,103,116,76,76,stimuli/own/kitchen/103_kit.jpg,stimuli/own/kitchen/116_kit.jpg,,,,,,,,,0,145,145,75,1127.9007795,,,,,,,,,,,1128.1856068329998,1128.350122166,1128.350122166,1128.350122166,1128.350122166,1128.350122166,1128.350122166,1128.350122166,1128.350122166,1128.350122166,1136.1627349999999,7,-7,3,1.0,7.7270702079999865,2.0,5.75616500000001,1127.8953387909999,1127.9007795,1128.350122166,1128.185592666,,,,,,,,1127.891762666,1127.8952918329999,None,,,,,,,,,,,203,kitchen,2,2024-03-18_10h07.58.656,image_similarity_rating,2023.2.3,None,2024-03-18 10h08.25.781471 +0100,
,104,121,112,112,stimuli/own/kitchen/104_kit.jpg,stimuli/own/kitchen/121_kit.jpg,,,,,,,,,0,146,146,111,1136.168979375,,,,,,,,,,,1136.452698375,1136.618622708,1136.618622708,1136.618622708,1136.618622708,1136.618622708,1136.618622708,1136.618622708,1136.618622708,1136.618622708,1143.2663909579999,-7,7,3,2.0,6.470003875000202,4.0,2.531057624999903,1136.16644875,1136.168979375,1136.618622708,1136.4526832909999,,,,,,,,1136.162952333,1136.1664027499999,None,,,,,,,,,,,203,kitchen,2,2024-03-18_10h07.58.656,image_similarity_rating,2023.2.3,None,2024-03-18 10h08.25.781471 +0100,
,129,134,533,533,stimuli/own/kitchen/129_kit.jpg,stimuli/own/kitchen/134_kit.jpg,,,,,,,,,0,147,147,532,1143.2721017909998,,,,,,,,,,,1143.5557233329998,1143.7198085,1143.7198085,1143.7198085,1143.7198085,1143.7198085,1143.7198085,1143.7198085,1143.7198085,1143.7198085,1151.3368960829998,7,-7,3,1.0,6.464995791000092,3.0,7.546554792000052,1143.270156208,1143.2721017909998,1143.7198085,1143.555711583,,,,,,,,1143.2666421249999,1143.270108083,None,,,,,,,,,,,203,kitchen,2,2024-03-18_10h07.58.656,image_similarity_rating,2023.2.3,None,2024-03-18 10h08.25.781471 +0100,
,122,134,452,452,stimuli/own/kitchen/122_kit.jpg,stimuli/own/kitchen/134_kit.jpg,,,,,,,,,0,148,148,451,1151.342714125,,,,,,,,,,,1151.635383541,1151.801943166,1151.801943166,1151.801943166,1151.801943166,1151.801943166,1151.801943166,1151.801943166,1151.801943166,1151.801943166,1162.903516458,7,-7,3,3.0,11.073562167000091,3.0,7.47173495800007,1151.3407634159998,1151.342714125,1151.801943166,1151.635368833,,,,,,,,1151.3371225409999,1151.340714291,None,,,,,,,,,,,203,kitchen,2,2024-03-18_10h07.58.656,image_similarity_rating,2023.2.3,None,2024-03-18 10h08.25.781471 +0100,
,103,138,96,96,stimuli/own/kitchen/103_kit.jpg,stimuli/own/kitchen/138_kit.jpg,,,,,,,,,0,149,149,95,1162.909476291,,,,,,,,,,,1163.2020035829999,1163.3658962079999,1163.3658962079999,1163.3658962079999,1163.3658962079999,1163.3658962079999,1163.3658962079999,1163.3658962079999,1163.3658962079999,1163.3658962079999,1171.4950596249998,-7,7,3,1.0,8.075097417000052,2.0,4.818003541000053,1162.907364,1162.909476291,1163.3658962079999,1163.201990333,,,,,,,,1162.9037362499998,1162.907317125,None,,,,,,,,,,,203,kitchen,2,2024-03-18_10h07.58.656,image_similarity_rating,2023.2.3,None,2024-03-18 10h08.25.781471 +0100,
,102,124,52,52,stimuli/own/kitchen/102_kit.jpg,stimuli/own/kitchen/124_kit.jpg,,,,,,,,,0,150,150,51,1171.500588291,,,,,,,,,,,1171.7853048329998,1171.95312,1171.95312,1171.95312,1171.95312,1171.95312,1171.95312,1171.95312,1171.95312,1171.95312,1180.0831765,7,-7,3,2.0,8.167835833000026,3.0,7.365909375000001,1171.4987321249998,1171.500588291,1171.95312,1171.78528575,,,,,,,,1171.495279833,1171.498685375,None,,,,,,,,,,,203,kitchen,2,2024-03-18_10h07.58.656,image_similarity_rating,2023.2.3,None,2024-03-18 10h08.25.781471 +0100,
,109,135,211,211,stimuli/own/kitchen/109_kit.jpg,stimuli/own/kitchen/135_kit.jpg,,,,,,,,,0,151,151,210,1180.088949791,,,,,,,,,,,1180.3729799579999,1180.5429554579998,1180.5429554579998,1180.5429554579998,1180.5429554579998,1180.5429554579998,1180.5429554579998,1180.5429554579998,1180.5429554579998,1180.5429554579998,1209.688383916,7,-7,3,1.0,23.952068833000112,1.0,29.045968209000193,1180.086886583,1180.088949791,1180.5429554579998,1180.3729645829999,,,,,,,,1180.0834022079998,1180.0868404999999,None,,,,,,,,,,,203,kitchen,2,2024-03-18_10h07.58.656,image_similarity_rating,2023.2.3,None,2024-03-18 10h08.25.781471 +0100,
,112,136,265,265,stimuli/own/kitchen/112_kit.jpg,stimuli/own/kitchen/136_kit.jpg,,,,,,,,,0,152,152,264,1209.700528333,,,,,,,,,,,1209.986070833,1210.151217375,1210.151217375,1210.151217375,1210.151217375,1210.151217375,1210.151217375,1210.151217375,1210.151217375,1210.151217375,1223.828398875,7,-7,3,1.0,11.20526266700017,3.0,13.59021445899998,1209.692248375,1209.700528333,1210.151217375,1209.986057291,,,,,,,,1209.688604291,1209.692200916,None,,,,,,,,,,,203,kitchen,2,2024-03-18_10h07.58.656,image_similarity_rating,2023.2.3,None,2024-03-18 10h08.25.781471 +0100,
,101,138,31,31,stimuli/own/kitchen/101_kit.jpg,stimuli/own/kitchen/138_kit.jpg,,,,,,,,,0,153,153,30,1223.8506405409998,,,,,,,,,,,1224.134633958,1224.2997725,1224.2997725,1224.2997725,1224.2997725,1224.2997725,1224.2997725,1224.2997725,1224.2997725,1224.2997725,1228.9362624159999,-7,7,3,2.0,4.596685792000017,4.0,2.7041807499999777,1223.8320839159999,1223.8506405409998,,1224.134614166,,,,,,,,1223.828618083,1223.8320367909998,None,,,,,,,,,,,203,kitchen,2,2024-03-18_10h07.58.656,image_similarity_rating,2023.2.3,None,2024-03-18 10h08.25.781471 +0100,
,106,111,162,162,stimuli/own/kitchen/106_kit.jpg,stimuli/own/kitchen/111_kit.jpg,,,,,,,,,0,154,154,161,1228.941749875,,,,,,,,,,,1229.235109416,1229.3999724159999,1229.3999724159999,1229.3999724159999,1229.3999724159999,1229.3999724159999,1229.3999724159999,1229.3999724159999,1229.3999724159999,1229.3999724159999,1236.4528915829999,7,-7,3,2.0,7.062550375000001,3.0,6.252288832999966,1228.939936666,1228.941749875,1229.3999724159999,1229.235089416,,,,,,,,1228.936479583,1228.9398906249999,None,,,,,,,,,,,203,kitchen,2,2024-03-18_10h07.58.656,image_similarity_rating,2023.2.3,None,2024-03-18 10h08.25.781471 +0100,
