sub_num,trial,block,task,is_practice,category,image,texture,duration,mask_dur,jitter,stim_time,time_of_resp,trial_response,mask_time,fix_time,jit_onset,trial_end,trial_accuracy,RT
141,1,0,usability,1,bathroom,bathroom_practice3.tif,223,1.5,0,0.983333333333333,7696.939054708,7701.784693958,6,NaN,7701.792345958,7701.81155425,7702.788317167,NaN,NaN
141,2,0,usability,1,bathroom,bathroom_practice4.tif,224,1.5,0,1.78333333333333,7702.794406417,7705.643760458,7,NaN,7705.673255042,7705.696648167,7707.473524458,NaN,NaN
141,3,0,usability,1,bathroom,bathroom_practice5.tif,225,1.5,0,1.78333333333333,7707.493555417,7710.60394275,6,NaN,7710.632847458,7710.65689025,7712.433599875,NaN,NaN
141,4,0,usability,1,bathroom,bathroom_practice2.tif,222,1.5,0,1.26666666666667,7712.452308375,7718.088191042,6,NaN,7718.094003083,7718.112392042,7719.372444417,NaN,NaN
141,5,0,usability,1,bathroom,bathroom_practice1.tif,221,1.5,0,1.05,7719.389843875,7722.504173125,7,NaN,7722.509924208,7722.528391167,7723.57175875,NaN,NaN
141,1,1,usability,0,bathroom,sun_apynckhmoftszqoq.tif,157,1.5,0,1.01666666666667,7732.592531583,7735.840214,6,NaN,7735.846706417,7735.865070125,7736.875121083,NaN,NaN
141,2,1,usability,0,bathroom,sun_avhrdrntsqrjzccq.tif,165,1.5,0,1.61666666666667,7736.884541042,7739.888204333,6,NaN,7739.893915417,7739.912233542,7741.5222675,NaN,NaN
141,3,1,usability,0,bathroom,sun_apkxzenqapsujocq.tif,155,1.5,0,1.16666666666667,7741.537510208,7745.328633042,7,NaN,7745.334161833,7745.352497417,7746.512541375,NaN,NaN
141,4,1,usability,0,bathroom,sun_aoybiabnpadelefl.tif,151,1.5,0,0.983333333333333,7746.523160667,7749.32843275,7,NaN,7749.33385775,7749.352181125,7750.328852958,NaN,NaN
141,5,1,usability,0,bathroom,sun_aggnnqpdorgxpvce.tif,131,1.5,0,0.783333333333333,7750.334418833,7753.389621167,7,NaN,7753.418210542,7753.439272333,7754.215943208,NaN,NaN
141,6,1,usability,0,bathroom,sun_ambriybtogmepttm.tif,146,1.5,0,0.816666666666667,7754.221302417,7757.185148458,7,NaN,7757.213588708,7757.236592,7758.0465965,NaN,NaN
141,7,1,usability,0,bathroom,sun_agrwbmhcpmfuwmsg.tif,134,1.5,0,1.1,7758.051557083,7760.775191958,7,NaN,7760.804659833,7760.827895542,7761.92128275,NaN,NaN
141,8,1,usability,0,bathroom,sun_amzlamotzwfkwjco.tif,147,1.5,0,1.65,7761.93049275,7764.616269875,7,NaN,7764.621965083,7764.641257583,7766.284633458,NaN,NaN
141,9,1,usability,0,bathroom,sun_afcoljnjfoxjtgja.tif,130,1.5,0,1.13333333333333,7766.3015395,7769.666163958,7,NaN,7769.692303667,7769.715293292,7770.841995792,NaN,NaN
141,10,1,usability,0,bathroom,sun_aofnryafpsjimzsb.tif,150,1.5,0,0.766666666666667,7770.850785417,7775.320353833,5,NaN,7775.325881583,7775.344135458,7776.104141292,NaN,NaN
141,11,1,usability,0,bathroom,sun_apeeialkgkuxddgh.tif,152,1.5,0,1.25,7776.108827583,7779.095084458,7,NaN,7779.125628917,7779.148899292,7780.392275,NaN,NaN
141,12,1,usability,0,bathroom,sun_aavhrsfjbserjtht.tif,123,1.5,0,1.5,7780.41033625,7784.536125417,5,NaN,7784.542056583,7784.560329875,7786.053698167,NaN,NaN
141,13,1,usability,0,bathroom,labelme_sfxiulhjbhlyiyt.tif,121,1.5,0,1.56666666666667,7786.073224917,7789.503685875,7,NaN,7789.509540167,7789.528026875,7791.088076208,NaN,NaN
141,14,1,usability,0,bathroom,sun_alkosphxlxwjwgjd.tif,144,1.5,0,1.45,7791.110767375,7793.879632458,7,NaN,7793.8856345,7793.903933375,7795.347299917,NaN,NaN
141,15,1,usability,0,bathroom,sun_atstyziqcmkahyxk.tif,161,1.5,0,1.53333333333333,7795.3641225,7799.159736125,7,NaN,7799.16551175,7799.1838545,7800.710565958,NaN,NaN
141,16,1,usability,0,bathroom,sun_aleqenyvunhactkl.tif,142,1.5,0,0.8,7800.728663125,7805.688165958,5,NaN,7805.693687708,7805.712037167,7806.505377333,NaN,NaN
141,17,1,usability,0,bathroom,sun_ahaulkltgpkeeemi.tif,136,1.5,0,0.933333333333333,7806.510725375,7809.427905875,7,NaN,7809.458787542,7809.48207625,7810.408749333,NaN,NaN
141,18,1,usability,0,bathroom,sun_aljolscmmzydegqp.tif,143,1.5,0,1.75,7810.414279708,7813.315679792,1,NaN,7813.344437375,7813.3670435,7815.110420917,NaN,NaN
141,19,1,usability,0,bathroom,sun_ahijqszoswveeyji.tif,138,1.5,0,1.48333333333333,7815.128323042,7818.339537375,6,NaN,7818.367982292,7818.391314583,7819.86801875,NaN,NaN
141,20,1,usability,0,bathroom,sun_aclfzgynxzxlbepz.tif,129,1.5,0,1.03333333333333,7819.8840065,7823.255715833,7,NaN,7823.261528042,7823.279865292,7824.306581417,NaN,NaN
141,21,1,usability,0,bathroom,sun_alotolagknyrgtsk.tif,145,1.5,0,1.23333333333333,7824.315351667,7834.5677385,4,NaN,7834.574183042,7834.592767958,7835.819471542,NaN,NaN
141,22,1,usability,0,bathroom,sun_axxbkopsgyouuebh.tif,168,1.5,0,1.28333333333333,7835.836159125,7841.303722583,7,NaN,7841.310603875,7841.329022625,7842.605719792,NaN,NaN
141,23,1,usability,0,bathroom,sun_ahcvzmoyaycdoftf.tif,137,1.5,0,1.66666666666667,7842.627619,7845.567474083,7,NaN,7845.57340325,7845.591699958,7847.25175425,NaN,NaN
141,24,1,usability,0,bathroom,sun_aghyqhbptboemmoq.tif,133,1.5,0,1.26666666666667,7847.269722792,7850.041652917,7,NaN,7850.06829375,7850.091163042,7851.351216333,NaN,NaN
141,25,1,usability,0,bathroom,sun_awnqiikzaispgmwo.tif,166,1.5,0,1.4,7851.368669458,7854.023456875,7,NaN,7854.0294385,7854.047755667,7855.441131333,NaN,NaN
141,1,2,usability,0,bathroom,sun_abjtwfukuwddzted.tif,125,1.5,0,1.66666666666667,7862.499637875,7868.831762417,7,NaN,7868.837698667,7868.856086167,7870.516136,NaN,NaN
141,2,2,usability,0,bathroom,sun_aqrpegblszgcoujh.tif,158,1.5,0,1.85,7870.534573958,7873.255128625,6,NaN,7873.279565917,7873.301882042,7875.1452705,NaN,NaN
141,3,2,usability,0,bathroom,sun_acgyywnybuveqsro.tif,128,1.5,0,1.65,7875.165403792,7878.143442417,7,NaN,7878.174598417,7878.198556125,7879.841928292,NaN,NaN
141,4,2,usability,0,bathroom,sun_azqyogdvyhahyram.tif,170,1.5,0,0.95,7879.859700875,7883.191235417,6,NaN,7883.220533167,7883.243867333,7884.187205667,NaN,NaN
141,5,2,usability,0,bathroom,sun_apmqjbnwghzuhhzh.tif,156,1.5,0,0.783333333333333,7884.192097375,7887.559362958,7,NaN,7887.56629625,7887.584685708,7888.361356875,NaN,NaN
141,6,2,usability,0,bathroom,sun_ajlawzvmubibwbpy.tif,140,1.5,0,1.13333333333333,7888.366795708,7891.08021275,6,NaN,7891.108119917,7891.130988875,7892.257713167,NaN,NaN
141,7,2,usability,0,bathroom,sun_akiytfaagpdsphgz.tif,141,1.5,0,1.63333333333333,7892.267743917,7895.496278667,7,NaN,7895.501576417,7895.520010042,7897.146723083,NaN,NaN
141,8,2,usability,0,bathroom,sun_acduarbnmmoglmiv.tif,126,1.5,0,1.2,7897.164690417,7900.035281333,6,NaN,7900.064316375,7900.087731917,7901.281097708,NaN,NaN
141,9,2,usability,0,bathroom,sun_ahqjwnzgolcaoidx.tif,139,1.5,0,1.71666666666667,7901.292498458,7904.175716375,7,NaN,7904.181344708,7904.199539708,7905.909580292,NaN,NaN
141,10,2,usability,0,bathroom,sun_asfwthctfqerjvxr.tif,159,1.5,0,0.9,7905.9217545,7909.903741542,7,NaN,7909.909260458,7909.927480042,7910.82081875,NaN,NaN
141,11,2,usability,0,bathroom,sun_apjevzvycyhuqghb.tif,153,1.5,0,0.9,7910.826143208,7913.960082708,6,NaN,7913.965787542,7913.984160125,7914.87749875,NaN,NaN
141,12,2,usability,0,bathroom,sun_agguqiubmwhqqunb.tif,132,1.5,0,0.766666666666667,7914.889111542,7918.415853792,6,NaN,7918.42288775,7918.441079667,7919.201084458,NaN,NaN
141,13,2,usability,0,bathroom,sun_acegryoqftbzowsg.tif,127,1.5,0,0.966666666666667,7919.206941375,7922.4242575,7,NaN,7922.430111542,7922.448376042,7923.408381125,NaN,NaN
141,14,2,usability,0,bathroom,sun_apkruvsevgegsdwp.tif,154,1.5,0,0.7,7923.4137555,7928.135819042,7,NaN,7928.141867542,7928.160470167,7928.853810583,NaN,NaN
141,15,2,usability,0,bathroom,sun_aunuadmjocsddsrl.tif,162,1.5,0,1.1,7928.85910575,7932.008385333,7,NaN,7932.017928167,7932.037039417,7933.130411292,NaN,NaN
141,16,2,usability,0,bathroom,sun_axyrejkiiaqiurjk.tif,169,1.5,0,1.33333333333333,7933.140455375,7944.903442083,7,NaN,7944.909252417,7944.927527375,7946.254233708,NaN,NaN
141,17,2,usability,0,bathroom,sun_ausgutylgojavyoq.tif,163,1.5,0,1.15,7946.275282208,7951.263520417,4,NaN,7951.269123042,7951.287572917,7952.430956917,NaN,NaN
141,18,2,usability,0,bathroom,sun_aapitsgbtktqubfy.tif,122,1.5,0,1.28333333333333,7952.441870875,7955.31939325,7,NaN,7955.325101875,7955.343405833,7956.620123,NaN,NaN
141,19,2,usability,0,bathroom,sun_agyqfjcfkdcydepw.tif,135,1.5,0,1.35,7956.636363375,7959.54397025,6,NaN,7959.54930025,7959.567703417,7960.911077833,NaN,NaN
141,20,2,usability,0,bathroom,sun_abapwbhyhkfixyex.tif,124,1.5,0,1.43333333333333,7960.931234708,7963.927730042,6,NaN,7963.933195542,7963.951544125,7965.378248375,NaN,NaN
141,21,2,usability,0,bathroom,sun_auzqhkafidnkrwmo.tif,164,1.5,0,0.916666666666667,7965.395435542,7968.383218125,6,NaN,7968.388926042,7968.407130042,7969.317135333,NaN,NaN
141,22,2,usability,0,bathroom,sun_anryaplzeujmzfkd.tif,149,1.5,0,0.766666666666667,7969.323128958,7973.119604208,3,NaN,7973.125226042,7973.143430125,7973.90343475,NaN,NaN
141,23,2,usability,0,bathroom,sun_anhioqovhscjqqwb.tif,148,1.5,0,0.866666666666667,7973.907820375,7977.007963083,3,NaN,7977.014908625,7977.033166292,7977.89317225,NaN,NaN
141,24,2,usability,0,bathroom,sun_axldvoqbuvuggfmq.tif,167,1.5,0,0.833333333333333,7977.904623583,7980.876925333,7,NaN,7980.905245958,7980.92814,7981.754813167,NaN,NaN
141,25,2,usability,0,bathroom,sun_aspsyogrekjtfozg.tif,160,1.5,0,0.75,7981.76041425,7984.670848958,3,NaN,7984.692024917,7984.715937583,7985.45927775,NaN,NaN
